%time,field.header.seq,field.header.stamp,field.header.frame_id,field.orientation.x,field.orientation.y,field.orientation.z,field.orientation.w,field.orientation_covariance0,field.orientation_covariance1,field.orientation_covariance2,field.orientation_covariance3,field.orientation_covariance4,field.orientation_covariance5,field.orientation_covariance6,field.orientation_covariance7,field.orientation_covariance8,field.angular_velocity.x,field.angular_velocity.y,field.angular_velocity.z,field.angular_velocity_covariance0,field.angular_velocity_covariance1,field.angular_velocity_covariance2,field.angular_velocity_covariance3,field.angular_velocity_covariance4,field.angular_velocity_covariance5,field.angular_velocity_covariance6,field.angular_velocity_covariance7,field.angular_velocity_covariance8,field.linear_acceleration.x,field.linear_acceleration.y,field.linear_acceleration.z,field.linear_acceleration_covariance0,field.linear_acceleration_covariance1,field.linear_acceleration_covariance2,field.linear_acceleration_covariance3,field.linear_acceleration_covariance4,field.linear_acceleration_covariance5,field.linear_acceleration_covariance6,field.linear_acceleration_covariance7,field.linear_acceleration_covariance8
1637019938544184468,66327,1637019938543093635,,0.0,0.0,0.0,0.0,-1.0,0.0,0.0,0.0,0.0,0.0,0.0,0.0,0.0,-0.000872664625997,0.00872664625997,-0.00261799387799,0.0,0.0,0.0,0.0,0.0,0.0,0.0,0.0,0.0,0.097119,0.097119,-9.550035,0.0,0.0,0.0,0.0,0.0,0.0,0.0,0.0,0.0
1637019938563999828,66328,1637019938563750230,,0.0,0.0,0.0,0.0,-1.0,0.0,0.0,0.0,0.0,0.0,0.0,0.0,0.0,-0.00349065850399,0.012217304764,-0.00261799387799,0.0,0.0,0.0,0.0,0.0,0.0,0.0,0.0,0.0,-0.097119,0.129492,-9.582408,0.0,0.0,0.0,0.0,0.0,0.0,0.0,0.0,0.0
1637019938583067289,66329,1637019938582887811,,0.0,0.0,0.0,0.0,-1.0,0.0,0.0,0.0,0.0,0.0,0.0,0.0,0.0,-0.00785398163397,0.00610865238198,0.0,0.0,0.0,0.0,0.0,0.0,0.0,0.0,0.0,0.0,0.064746,0.129492,-9.679527,0.0,0.0,0.0,0.0,0.0,0.0,0.0,0.0,0.0
1637019938603099947,66330,1637019938602920782,,0.0,0.0,0.0,0.0,-1.0,0.0,0.0,0.0,0.0,0.0,0.0,0.0,0.0,0.00261799387799,0.00436332312999,-0.00785398163397,0.0,0.0,0.0,0.0,0.0,0.0,0.0,0.0,0.0,0.097119,0.161865,-9.647154,0.0,0.0,0.0,0.0,0.0,0.0,0.0,0.0,0.0
1637019938623082639,66331,1637019938622912921,,0.0,0.0,0.0,0.0,-1.0,0.0,0.0,0.0,0.0,0.0,0.0,0.0,0.0,-0.00959931088597,-0.000872664625997,-0.00872664625997,0.0,0.0,0.0,0.0,0.0,0.0,0.0,0.0,0.0,0.129492,0.161865,-9.614781,0.0,0.0,0.0,0.0,0.0,0.0,0.0,0.0,0.0
1637019938643054672,66332,1637019938642859970,,0.0,0.0,0.0,0.0,-1.0,0.0,0.0,0.0,0.0,0.0,0.0,0.0,0.0,-0.00785398163397,-0.00261799387799,-0.00959931088597,0.0,0.0,0.0,0.0,0.0,0.0,0.0,0.0,0.0,0.097119,0.129492,-9.7119,0.0,0.0,0.0,0.0,0.0,0.0,0.0,0.0,0.0
1637019938663085652,66333,1637019938662893008,,0.0,0.0,0.0,0.0,-1.0,0.0,0.0,0.0,0.0,0.0,0.0,0.0,0.0,-0.00698131700798,0.0,-0.00174532925199,0.0,0.0,0.0,0.0,0.0,0.0,0.0,0.0,0.0,0.097119,0.194238,-9.614781,0.0,0.0,0.0,0.0,0.0,0.0,0.0,0.0,0.0
1637019938683058366,66334,1637019938682849270,,0.0,0.0,0.0,0.0,-1.0,0.0,0.0,0.0,0.0,0.0,0.0,0.0,0.0,0.000872664625997,0.000872664625997,0.00174532925199,0.0,0.0,0.0,0.0,0.0,0.0,0.0,0.0,0.0,0.0,0.129492,-9.582408,0.0,0.0,0.0,0.0,0.0,0.0,0.0,0.0,0.0
1637019938703156685,66335,1637019938702975839,,0.0,0.0,0.0,0.0,-1.0,0.0,0.0,0.0,0.0,0.0,0.0,0.0,0.0,-0.00785398163397,0.00261799387799,-0.01308996939,0.0,0.0,0.0,0.0,0.0,0.0,0.0,0.0,0.0,0.129492,0.129492,-9.647154,0.0,0.0,0.0,0.0,0.0,0.0,0.0,0.0,0.0
1637019938723380435,66336,1637019938722928284,,0.0,0.0,0.0,0.0,-1.0,0.0,0.0,0.0,0.0,0.0,0.0,0.0,0.0,0.00610865238198,0.0,-0.00698131700798,0.0,0.0,0.0,0.0,0.0,0.0,0.0,0.0,0.0,0.097119,0.097119,-9.614781,0.0,0.0,0.0,0.0,0.0,0.0,0.0,0.0,0.0
1637019938743319574,66337,1637019938742980206,,0.0,0.0,0.0,0.0,-1.0,0.0,0.0,0.0,0.0,0.0,0.0,0.0,0.0,0.00698131700798,0.000872664625997,-0.012217304764,0.0,0.0,0.0,0.0,0.0,0.0,0.0,0.0,0.0,0.129492,0.226611,-9.7119,0.0,0.0,0.0,0.0,0.0,0.0,0.0,0.0,0.0
1637019938763065060,66338,1637019938762846889,,0.0,0.0,0.0,0.0,-1.0,0.0,0.0,0.0,0.0,0.0,0.0,0.0,0.0,-0.00174532925199,0.0,-0.00610865238198,0.0,0.0,0.0,0.0,0.0,0.0,0.0,0.0,0.0,0.097119,0.161865,-9.614781,0.0,0.0,0.0,0.0,0.0,0.0,0.0,0.0,0.0
1637019938783109392,66339,1637019938782915113,,0.0,0.0,0.0,0.0,-1.0,0.0,0.0,0.0,0.0,0.0,0.0,0.0,0.0,0.00349065850399,0.000872664625997,-0.00261799387799,0.0,0.0,0.0,0.0,0.0,0.0,0.0,0.0,0.0,0.129492,0.032373,-9.614781,0.0,0.0,0.0,0.0,0.0,0.0,0.0,0.0,0.0
1637019938803498050,66340,1637019938803199493,,0.0,0.0,0.0,0.0,-1.0,0.0,0.0,0.0,0.0,0.0,0.0,0.0,0.0,-0.00610865238198,0.00261799387799,-0.00174532925199,0.0,0.0,0.0,0.0,0.0,0.0,0.0,0.0,0.0,0.161865,0.097119,-9.614781,0.0,0.0,0.0,0.0,0.0,0.0,0.0,0.0,0.0
1637019938823803404,66341,1637019938823222210,,0.0,0.0,0.0,0.0,-1.0,0.0,0.0,0.0,0.0,0.0,0.0,0.0,0.0,-0.00698131700798,0.0,-0.00872664625997,0.0,0.0,0.0,0.0,0.0,0.0,0.0,0.0,0.0,0.129492,0.194238,-9.614781,0.0,0.0,0.0,0.0,0.0,0.0,0.0,0.0,0.0
1637019938845297455,66342,1637019938844347578,,0.0,0.0,0.0,0.0,-1.0,0.0,0.0,0.0,0.0,0.0,0.0,0.0,0.0,0.0,0.012217304764,-0.00872664625997,0.0,0.0,0.0,0.0,0.0,0.0,0.0,0.0,0.0,0.129492,0.161865,-9.614781,0.0,0.0,0.0,0.0,0.0,0.0,0.0,0.0,0.0
1637019938863934121,66343,1637019938863273094,,0.0,0.0,0.0,0.0,-1.0,0.0,0.0,0.0,0.0,0.0,0.0,0.0,0.0,-0.00698131700798,0.000872664625997,-0.00610865238198,0.0,0.0,0.0,0.0,0.0,0.0,0.0,0.0,0.0,0.161865,0.194238,-9.582408,0.0,0.0,0.0,0.0,0.0,0.0,0.0,0.0,0.0
1637019938885319519,66344,1637019938884133779,,0.0,0.0,0.0,0.0,-1.0,0.0,0.0,0.0,0.0,0.0,0.0,0.0,0.0,-0.00174532925199,0.00436332312999,-0.013962634016,0.0,0.0,0.0,0.0,0.0,0.0,0.0,0.0,0.0,0.129492,0.129492,-9.679527,0.0,0.0,0.0,0.0,0.0,0.0,0.0,0.0,0.0
1637019938903361965,66345,1637019938903000582,,0.0,0.0,0.0,0.0,-1.0,0.0,0.0,0.0,0.0,0.0,0.0,0.0,0.0,-0.00523598775598,0.00610865238198,0.00523598775598,0.0,0.0,0.0,0.0,0.0,0.0,0.0,0.0,0.0,0.064746,0.226611,-9.582408,0.0,0.0,0.0,0.0,0.0,0.0,0.0,0.0,0.0
1637019938923274669,66346,1637019938923041528,,0.0,0.0,0.0,0.0,-1.0,0.0,0.0,0.0,0.0,0.0,0.0,0.0,0.0,0.00436332312999,-0.00174532925199,-0.00959931088597,0.0,0.0,0.0,0.0,0.0,0.0,0.0,0.0,0.0,0.129492,0.161865,-9.614781,0.0,0.0,0.0,0.0,0.0,0.0,0.0,0.0,0.0
1637019938942967466,66347,1637019938942836549,,0.0,0.0,0.0,0.0,-1.0,0.0,0.0,0.0,0.0,0.0,0.0,0.0,0.0,0.0,0.011344640138,-0.00610865238198,0.0,0.0,0.0,0.0,0.0,0.0,0.0,0.0,0.0,0.129492,0.161865,-9.647154,0.0,0.0,0.0,0.0,0.0,0.0,0.0,0.0,0.0
1637019938962918836,66348,1637019938962795656,,0.0,0.0,0.0,0.0,-1.0,0.0,0.0,0.0,0.0,0.0,0.0,0.0,0.0,-0.00261799387799,0.00785398163397,-0.00174532925199,0.0,0.0,0.0,0.0,0.0,0.0,0.0,0.0,0.0,0.032373,0.161865,-9.647154,0.0,0.0,0.0,0.0,0.0,0.0,0.0,0.0,0.0
1637019938982955644,66349,1637019938982797493,,0.0,0.0,0.0,0.0,-1.0,0.0,0.0,0.0,0.0,0.0,0.0,0.0,0.0,-0.010471975512,0.00349065850399,-0.00174532925199,0.0,0.0,0.0,0.0,0.0,0.0,0.0,0.0,0.0,0.194238,0.097119,-9.744273,0.0,0.0,0.0,0.0,0.0,0.0,0.0,0.0,0.0
1637019939003400388,66350,1637019939003169508,,0.0,0.0,0.0,0.0,-1.0,0.0,0.0,0.0,0.0,0.0,0.0,0.0,0.0,-0.00523598775598,-0.00174532925199,-0.000872664625997,0.0,0.0,0.0,0.0,0.0,0.0,0.0,0.0,0.0,0.064746,0.129492,-9.582408,0.0,0.0,0.0,0.0,0.0,0.0,0.0,0.0,0.0
1637019939023214836,66351,1637019939023090035,,0.0,0.0,0.0,0.0,-1.0,0.0,0.0,0.0,0.0,0.0,0.0,0.0,0.0,-0.00349065850399,0.00174532925199,0.00261799387799,0.0,0.0,0.0,0.0,0.0,0.0,0.0,0.0,0.0,0.194238,0.097119,-9.647154,0.0,0.0,0.0,0.0,0.0,0.0,0.0,0.0,0.0
1637019939043233644,66352,1637019939042857458,,0.0,0.0,0.0,0.0,-1.0,0.0,0.0,0.0,0.0,0.0,0.0,0.0,0.0,0.00436332312999,0.00261799387799,-0.00523598775598,0.0,0.0,0.0,0.0,0.0,0.0,0.0,0.0,0.0,0.161865,0.194238,-9.582408,0.0,0.0,0.0,0.0,0.0,0.0,0.0,0.0,0.0
1637019939063274551,66353,1637019939062963338,,0.0,0.0,0.0,0.0,-1.0,0.0,0.0,0.0,0.0,0.0,0.0,0.0,0.0,0.00174532925199,-0.000872664625997,-0.00523598775598,0.0,0.0,0.0,0.0,0.0,0.0,0.0,0.0,0.0,0.129492,0.161865,-9.614781,0.0,0.0,0.0,0.0,0.0,0.0,0.0,0.0,0.0
1637019939083333383,66354,1637019939083096117,,0.0,0.0,0.0,0.0,-1.0,0.0,0.0,0.0,0.0,0.0,0.0,0.0,0.0,0.00610865238198,0.00436332312999,-0.010471975512,0.0,0.0,0.0,0.0,0.0,0.0,0.0,0.0,0.0,0.161865,0.226611,-9.679527,0.0,0.0,0.0,0.0,0.0,0.0,0.0,0.0,0.0
1637019939104179271,66355,1637019939103557225,,0.0,0.0,0.0,0.0,-1.0,0.0,0.0,0.0,0.0,0.0,0.0,0.0,0.0,-0.00436332312999,0.00610865238198,-0.00523598775598,0.0,0.0,0.0,0.0,0.0,0.0,0.0,0.0,0.0,0.097119,0.226611,-9.679527,0.0,0.0,0.0,0.0,0.0,0.0,0.0,0.0,0.0
1637019939124334253,66356,1637019939123825120,,0.0,0.0,0.0,0.0,-1.0,0.0,0.0,0.0,0.0,0.0,0.0,0.0,0.0,0.00872664625997,0.00785398163397,0.00261799387799,0.0,0.0,0.0,0.0,0.0,0.0,0.0,0.0,0.0,0.064746,0.161865,-9.647154,0.0,0.0,0.0,0.0,0.0,0.0,0.0,0.0,0.0
1637019939144920234,66357,1637019939144445470,,0.0,0.0,0.0,0.0,-1.0,0.0,0.0,0.0,0.0,0.0,0.0,0.0,0.0,-0.00610865238198,0.00261799387799,0.00698131700798,0.0,0.0,0.0,0.0,0.0,0.0,0.0,0.0,0.0,0.129492,0.129492,-9.647154,0.0,0.0,0.0,0.0,0.0,0.0,0.0,0.0,0.0
1637019939165262523,66358,1637019939164284970,,0.0,0.0,0.0,0.0,-1.0,0.0,0.0,0.0,0.0,0.0,0.0,0.0,0.0,0.00174532925199,0.00523598775598,-0.013962634016,0.0,0.0,0.0,0.0,0.0,0.0,0.0,0.0,0.0,0.097119,0.161865,-9.614781,0.0,0.0,0.0,0.0,0.0,0.0,0.0,0.0,0.0
1637019939185391212,66359,1637019939184349043,,0.0,0.0,0.0,0.0,-1.0,0.0,0.0,0.0,0.0,0.0,0.0,0.0,0.0,0.00349065850399,0.00174532925199,-0.00610865238198,0.0,0.0,0.0,0.0,0.0,0.0,0.0,0.0,0.0,0.258984,0.097119,-9.7119,0.0,0.0,0.0,0.0,0.0,0.0,0.0,0.0,0.0
1637019939203363889,66360,1637019939203083099,,0.0,0.0,0.0,0.0,-1.0,0.0,0.0,0.0,0.0,0.0,0.0,0.0,0.0,0.00174532925199,-0.00436332312999,0.0,0.0,0.0,0.0,0.0,0.0,0.0,0.0,0.0,0.0,0.097119,0.161865,-9.582408,0.0,0.0,0.0,0.0,0.0,0.0,0.0,0.0,0.0
1637019939222983697,66361,1637019939222839824,,0.0,0.0,0.0,0.0,-1.0,0.0,0.0,0.0,0.0,0.0,0.0,0.0,0.0,0.00610865238198,0.00349065850399,-0.00349065850399,0.0,0.0,0.0,0.0,0.0,0.0,0.0,0.0,0.0,0.064746,0.161865,-9.679527,0.0,0.0,0.0,0.0,0.0,0.0,0.0,0.0,0.0
1637019939242898151,66362,1637019939242779403,,0.0,0.0,0.0,0.0,-1.0,0.0,0.0,0.0,0.0,0.0,0.0,0.0,0.0,-0.000872664625997,0.00959931088597,-0.00610865238198,0.0,0.0,0.0,0.0,0.0,0.0,0.0,0.0,0.0,0.194238,0.161865,-9.647154,0.0,0.0,0.0,0.0,0.0,0.0,0.0,0.0,0.0
1637019939262901804,66363,1637019939262804184,,0.0,0.0,0.0,0.0,-1.0,0.0,0.0,0.0,0.0,0.0,0.0,0.0,0.0,0.00261799387799,0.00610865238198,-0.011344640138,0.0,0.0,0.0,0.0,0.0,0.0,0.0,0.0,0.0,0.161865,0.129492,-9.614781,0.0,0.0,0.0,0.0,0.0,0.0,0.0,0.0,0.0
1637019939282996396,66364,1637019939282818007,,0.0,0.0,0.0,0.0,-1.0,0.0,0.0,0.0,0.0,0.0,0.0,0.0,0.0,-0.00174532925199,0.0,-0.00436332312999,0.0,0.0,0.0,0.0,0.0,0.0,0.0,0.0,0.0,0.097119,0.32373,-9.614781,0.0,0.0,0.0,0.0,0.0,0.0,0.0,0.0,0.0
1637019939303102389,66365,1637019939302786590,,0.0,0.0,0.0,0.0,-1.0,0.0,0.0,0.0,0.0,0.0,0.0,0.0,0.0,0.00261799387799,0.00785398163397,-0.00698131700798,0.0,0.0,0.0,0.0,0.0,0.0,0.0,0.0,0.0,0.161865,0.194238,-9.614781,0.0,0.0,0.0,0.0,0.0,0.0,0.0,0.0,0.0
1637019939323060797,66366,1637019939322798986,,0.0,0.0,0.0,0.0,-1.0,0.0,0.0,0.0,0.0,0.0,0.0,0.0,0.0,0.00436332312999,0.00523598775598,-0.00959931088597,0.0,0.0,0.0,0.0,0.0,0.0,0.0,0.0,0.0,0.129492,0.161865,-9.614781,0.0,0.0,0.0,0.0,0.0,0.0,0.0,0.0,0.0
1637019939343003022,66367,1637019939342790710,,0.0,0.0,0.0,0.0,-1.0,0.0,0.0,0.0,0.0,0.0,0.0,0.0,0.0,-0.00523598775598,0.00349065850399,-0.00261799387799,0.0,0.0,0.0,0.0,0.0,0.0,0.0,0.0,0.0,0.129492,0.097119,-9.582408,0.0,0.0,0.0,0.0,0.0,0.0,0.0,0.0,0.0
1637019939363027626,66368,1637019939362870842,,0.0,0.0,0.0,0.0,-1.0,0.0,0.0,0.0,0.0,0.0,0.0,0.0,0.0,0.00261799387799,-0.000872664625997,0.00261799387799,0.0,0.0,0.0,0.0,0.0,0.0,0.0,0.0,0.0,0.194238,0.226611,-9.614781,0.0,0.0,0.0,0.0,0.0,0.0,0.0,0.0,0.0
1637019939383103864,66369,1637019939382865530,,0.0,0.0,0.0,0.0,-1.0,0.0,0.0,0.0,0.0,0.0,0.0,0.0,0.0,-0.01308996939,0.000872664625997,-0.011344640138,0.0,0.0,0.0,0.0,0.0,0.0,0.0,0.0,0.0,0.161865,0.194238,-9.582408,0.0,0.0,0.0,0.0,0.0,0.0,0.0,0.0,0.0
1637019939403294874,66370,1637019939402917834,,0.0,0.0,0.0,0.0,-1.0,0.0,0.0,0.0,0.0,0.0,0.0,0.0,0.0,-0.00610865238198,-0.00349065850399,-0.00174532925199,0.0,0.0,0.0,0.0,0.0,0.0,0.0,0.0,0.0,0.064746,0.129492,-9.614781,0.0,0.0,0.0,0.0,0.0,0.0,0.0,0.0,0.0
1637019939423574663,66371,1637019939423111274,,0.0,0.0,0.0,0.0,-1.0,0.0,0.0,0.0,0.0,0.0,0.0,0.0,0.0,-0.00610865238198,0.00349065850399,-0.00610865238198,0.0,0.0,0.0,0.0,0.0,0.0,0.0,0.0,0.0,0.032373,0.161865,-9.614781,0.0,0.0,0.0,0.0,0.0,0.0,0.0,0.0,0.0
1637019939443551992,66372,1637019939443134529,,0.0,0.0,0.0,0.0,-1.0,0.0,0.0,0.0,0.0,0.0,0.0,0.0,0.0,-0.000872664625997,0.000872664625997,0.0,0.0,0.0,0.0,0.0,0.0,0.0,0.0,0.0,0.0,0.097119,0.097119,-9.614781,0.0,0.0,0.0,0.0,0.0,0.0,0.0,0.0,0.0
1637019939463457959,66373,1637019939463145989,,0.0,0.0,0.0,0.0,-1.0,0.0,0.0,0.0,0.0,0.0,0.0,0.0,0.0,-0.00523598775598,0.0157079632679,0.000872664625997,0.0,0.0,0.0,0.0,0.0,0.0,0.0,0.0,0.0,0.097119,0.291357,-9.550035,0.0,0.0,0.0,0.0,0.0,0.0,0.0,0.0,0.0
1637019939483258965,66374,1637019939483066552,,0.0,0.0,0.0,0.0,-1.0,0.0,0.0,0.0,0.0,0.0,0.0,0.0,0.0,0.00349065850399,0.00349065850399,-0.00785398163397,0.0,0.0,0.0,0.0,0.0,0.0,0.0,0.0,0.0,0.129492,0.161865,-9.647154,0.0,0.0,0.0,0.0,0.0,0.0,0.0,0.0,0.0
1637019939503553164,66375,1637019939503111476,,0.0,0.0,0.0,0.0,-1.0,0.0,0.0,0.0,0.0,0.0,0.0,0.0,0.0,-0.010471975512,-0.00349065850399,0.000872664625997,0.0,0.0,0.0,0.0,0.0,0.0,0.0,0.0,0.0,0.097119,0.194238,-9.614781,0.0,0.0,0.0,0.0,0.0,0.0,0.0,0.0,0.0
1637019939524305264,66376,1637019939523206594,,0.0,0.0,0.0,0.0,-1.0,0.0,0.0,0.0,0.0,0.0,0.0,0.0,0.0,-0.00261799387799,0.010471975512,0.00436332312999,0.0,0.0,0.0,0.0,0.0,0.0,0.0,0.0,0.0,0.161865,0.064746,-9.582408,0.0,0.0,0.0,0.0,0.0,0.0,0.0,0.0,0.0
1637019939543778237,66377,1637019939543147061,,0.0,0.0,0.0,0.0,-1.0,0.0,0.0,0.0,0.0,0.0,0.0,0.0,0.0,-0.00261799387799,-0.00698131700798,0.00261799387799,0.0,0.0,0.0,0.0,0.0,0.0,0.0,0.0,0.0,0.064746,0.161865,-9.7119,0.0,0.0,0.0,0.0,0.0,0.0,0.0,0.0,0.0
1637019939564179866,66378,1637019939563115325,,0.0,0.0,0.0,0.0,-1.0,0.0,0.0,0.0,0.0,0.0,0.0,0.0,0.0,-0.000872664625997,0.00436332312999,-0.00349065850399,0.0,0.0,0.0,0.0,0.0,0.0,0.0,0.0,0.0,0.064746,0.129492,-9.679527,0.0,0.0,0.0,0.0,0.0,0.0,0.0,0.0,0.0
1637019939583418171,66379,1637019939583062826,,0.0,0.0,0.0,0.0,-1.0,0.0,0.0,0.0,0.0,0.0,0.0,0.0,0.0,-0.011344640138,0.00610865238198,-0.00261799387799,0.0,0.0,0.0,0.0,0.0,0.0,0.0,0.0,0.0,0.161865,0.097119,-9.7119,0.0,0.0,0.0,0.0,0.0,0.0,0.0,0.0,0.0
1637019939603829620,66380,1637019939603280955,,0.0,0.0,0.0,0.0,-1.0,0.0,0.0,0.0,0.0,0.0,0.0,0.0,0.0,0.00261799387799,0.00610865238198,-0.00785398163397,0.0,0.0,0.0,0.0,0.0,0.0,0.0,0.0,0.0,0.064746,0.097119,-9.582408,0.0,0.0,0.0,0.0,0.0,0.0,0.0,0.0,0.0
1637019939623393126,66381,1637019939623156356,,0.0,0.0,0.0,0.0,-1.0,0.0,0.0,0.0,0.0,0.0,0.0,0.0,0.0,0.00349065850399,0.00698131700798,-0.00872664625997,0.0,0.0,0.0,0.0,0.0,0.0,0.0,0.0,0.0,0.097119,0.161865,-9.647154,0.0,0.0,0.0,0.0,0.0,0.0,0.0,0.0,0.0
1637019939643694021,66382,1637019939643060850,,0.0,0.0,0.0,0.0,-1.0,0.0,0.0,0.0,0.0,0.0,0.0,0.0,0.0,0.000872664625997,0.00523598775598,-0.00959931088597,0.0,0.0,0.0,0.0,0.0,0.0,0.0,0.0,0.0,0.129492,0.129492,-9.679527,0.0,0.0,0.0,0.0,0.0,0.0,0.0,0.0,0.0
1637019939663372500,66383,1637019939663125063,,0.0,0.0,0.0,0.0,-1.0,0.0,0.0,0.0,0.0,0.0,0.0,0.0,0.0,-0.00174532925199,0.0,-0.011344640138,0.0,0.0,0.0,0.0,0.0,0.0,0.0,0.0,0.0,0.097119,0.161865,-9.614781,0.0,0.0,0.0,0.0,0.0,0.0,0.0,0.0,0.0
1637019939683710847,66384,1637019939683178071,,0.0,0.0,0.0,0.0,-1.0,0.0,0.0,0.0,0.0,0.0,0.0,0.0,0.0,-0.00261799387799,0.00698131700798,-0.00436332312999,0.0,0.0,0.0,0.0,0.0,0.0,0.0,0.0,0.0,0.161865,0.097119,-9.7119,0.0,0.0,0.0,0.0,0.0,0.0,0.0,0.0,0.0
1637019939703539924,66385,1637019939703141600,,0.0,0.0,0.0,0.0,-1.0,0.0,0.0,0.0,0.0,0.0,0.0,0.0,0.0,0.010471975512,0.01308996939,-0.010471975512,0.0,0.0,0.0,0.0,0.0,0.0,0.0,0.0,0.0,0.032373,0.161865,-9.485289,0.0,0.0,0.0,0.0,0.0,0.0,0.0,0.0,0.0
1637019939723671328,66386,1637019939723179100,,0.0,0.0,0.0,0.0,-1.0,0.0,0.0,0.0,0.0,0.0,0.0,0.0,0.0,0.000872664625997,0.00174532925199,-0.00872664625997,0.0,0.0,0.0,0.0,0.0,0.0,0.0,0.0,0.0,0.097119,0.194238,-9.614781,0.0,0.0,0.0,0.0,0.0,0.0,0.0,0.0,0.0
1637019939743926023,66387,1637019939743380082,,0.0,0.0,0.0,0.0,-1.0,0.0,0.0,0.0,0.0,0.0,0.0,0.0,0.0,0.00436332312999,-0.00261799387799,-0.00785398163397,0.0,0.0,0.0,0.0,0.0,0.0,0.0,0.0,0.0,0.129492,0.226611,-9.647154,0.0,0.0,0.0,0.0,0.0,0.0,0.0,0.0,0.0
1637019939763429418,66388,1637019939763076926,,0.0,0.0,0.0,0.0,-1.0,0.0,0.0,0.0,0.0,0.0,0.0,0.0,0.0,0.00698131700798,0.00610865238198,-0.011344640138,0.0,0.0,0.0,0.0,0.0,0.0,0.0,0.0,0.0,0.032373,0.064746,-9.582408,0.0,0.0,0.0,0.0,0.0,0.0,0.0,0.0,0.0
1637019939783260359,66389,1637019939782889703,,0.0,0.0,0.0,0.0,-1.0,0.0,0.0,0.0,0.0,0.0,0.0,0.0,0.0,0.00261799387799,0.00436332312999,-0.00436332312999,0.0,0.0,0.0,0.0,0.0,0.0,0.0,0.0,0.0,0.32373,0.194238,-9.647154,0.0,0.0,0.0,0.0,0.0,0.0,0.0,0.0,0.0
1637019939803333842,66390,1637019939802919770,,0.0,0.0,0.0,0.0,-1.0,0.0,0.0,0.0,0.0,0.0,0.0,0.0,0.0,0.00174532925199,-0.00261799387799,-0.00261799387799,0.0,0.0,0.0,0.0,0.0,0.0,0.0,0.0,0.0,0.129492,0.194238,-9.582408,0.0,0.0,0.0,0.0,0.0,0.0,0.0,0.0,0.0
1637019939824247509,66391,1637019939823380285,,0.0,0.0,0.0,0.0,-1.0,0.0,0.0,0.0,0.0,0.0,0.0,0.0,0.0,0.00174532925199,0.010471975512,-0.00872664625997,0.0,0.0,0.0,0.0,0.0,0.0,0.0,0.0,0.0,0.064746,0.129492,-9.679527,0.0,0.0,0.0,0.0,0.0,0.0,0.0,0.0,0.0
1637019939843322447,66392,1637019939842978187,,0.0,0.0,0.0,0.0,-1.0,0.0,0.0,0.0,0.0,0.0,0.0,0.0,0.0,-0.00436332312999,0.00349065850399,0.0,0.0,0.0,0.0,0.0,0.0,0.0,0.0,0.0,0.0,0.064746,0.129492,-9.7119,0.0,0.0,0.0,0.0,0.0,0.0,0.0,0.0,0.0
1637019939863172982,66393,1637019939862912114,,0.0,0.0,0.0,0.0,-1.0,0.0,0.0,0.0,0.0,0.0,0.0,0.0,0.0,-0.011344640138,0.00959931088597,0.0,0.0,0.0,0.0,0.0,0.0,0.0,0.0,0.0,0.0,0.064746,0.064746,-9.550035,0.0,0.0,0.0,0.0,0.0,0.0,0.0,0.0,0.0
1637019939883164198,66394,1637019939882955958,,0.0,0.0,0.0,0.0,-1.0,0.0,0.0,0.0,0.0,0.0,0.0,0.0,0.0,-0.00174532925199,0.00174532925199,-0.014835298642,0.0,0.0,0.0,0.0,0.0,0.0,0.0,0.0,0.0,0.161865,0.161865,-9.679527,0.0,0.0,0.0,0.0,0.0,0.0,0.0,0.0,0.0
1637019939903244070,66395,1637019939902868280,,0.0,0.0,0.0,0.0,-1.0,0.0,0.0,0.0,0.0,0.0,0.0,0.0,0.0,-0.00174532925199,0.00349065850399,0.000872664625997,0.0,0.0,0.0,0.0,0.0,0.0,0.0,0.0,0.0,0.064746,0.194238,-9.679527,0.0,0.0,0.0,0.0,0.0,0.0,0.0,0.0,0.0
1637019939923293129,66396,1637019939922868888,,0.0,0.0,0.0,0.0,-1.0,0.0,0.0,0.0,0.0,0.0,0.0,0.0,0.0,-0.00261799387799,0.0,-0.00349065850399,0.0,0.0,0.0,0.0,0.0,0.0,0.0,0.0,0.0,0.129492,0.161865,-9.679527,0.0,0.0,0.0,0.0,0.0,0.0,0.0,0.0,0.0
1637019939943210846,66397,1637019939942915661,,0.0,0.0,0.0,0.0,-1.0,0.0,0.0,0.0,0.0,0.0,0.0,0.0,0.0,0.00523598775598,0.00349065850399,-0.011344640138,0.0,0.0,0.0,0.0,0.0,0.0,0.0,0.0,0.0,0.129492,0.064746,-9.679527,0.0,0.0,0.0,0.0,0.0,0.0,0.0,0.0,0.0
1637019939963212666,66398,1637019939962969457,,0.0,0.0,0.0,0.0,-1.0,0.0,0.0,0.0,0.0,0.0,0.0,0.0,0.0,-0.00523598775598,0.011344640138,-0.00436332312999,0.0,0.0,0.0,0.0,0.0,0.0,0.0,0.0,0.0,0.097119,0.064746,-9.582408,0.0,0.0,0.0,0.0,0.0,0.0,0.0,0.0,0.0
1637019939983108067,66399,1637019939982867943,,0.0,0.0,0.0,0.0,-1.0,0.0,0.0,0.0,0.0,0.0,0.0,0.0,0.0,0.000872664625997,-0.000872664625997,-0.0157079632679,0.0,0.0,0.0,0.0,0.0,0.0,0.0,0.0,0.0,0.129492,0.129492,-9.809019,0.0,0.0,0.0,0.0,0.0,0.0,0.0,0.0,0.0
1637019940003250084,66400,1637019940002852441,,0.0,0.0,0.0,0.0,-1.0,0.0,0.0,0.0,0.0,0.0,0.0,0.0,0.0,0.00174532925199,0.000872664625997,-0.0191986217719,0.0,0.0,0.0,0.0,0.0,0.0,0.0,0.0,0.0,0.064746,0.064746,-9.614781,0.0,0.0,0.0,0.0,0.0,0.0,0.0,0.0,0.0
1637019940023333151,66401,1637019940023193592,,0.0,0.0,0.0,0.0,-1.0,0.0,0.0,0.0,0.0,0.0,0.0,0.0,0.0,-0.00959931088597,0.00959931088597,-0.000872664625997,0.0,0.0,0.0,0.0,0.0,0.0,0.0,0.0,0.0,0.129492,0.194238,-9.647154,0.0,0.0,0.0,0.0,0.0,0.0,0.0,0.0,0.0
1637019940043589465,66402,1637019940043249380,,0.0,0.0,0.0,0.0,-1.0,0.0,0.0,0.0,0.0,0.0,0.0,0.0,0.0,-0.00523598775598,-0.00349065850399,-0.00872664625997,0.0,0.0,0.0,0.0,0.0,0.0,0.0,0.0,0.0,0.097119,0.258984,-9.679527,0.0,0.0,0.0,0.0,0.0,0.0,0.0,0.0,0.0
1637019940063208947,66403,1637019940062908157,,0.0,0.0,0.0,0.0,-1.0,0.0,0.0,0.0,0.0,0.0,0.0,0.0,0.0,0.0,0.00610865238198,-0.00698131700798,0.0,0.0,0.0,0.0,0.0,0.0,0.0,0.0,0.0,0.097119,0.097119,-9.614781,0.0,0.0,0.0,0.0,0.0,0.0,0.0,0.0,0.0
1637019940083139807,66404,1637019940082930324,,0.0,0.0,0.0,0.0,-1.0,0.0,0.0,0.0,0.0,0.0,0.0,0.0,0.0,0.00174532925199,0.011344640138,0.0,0.0,0.0,0.0,0.0,0.0,0.0,0.0,0.0,0.0,0.097119,0.194238,-9.647154,0.0,0.0,0.0,0.0,0.0,0.0,0.0,0.0,0.0
1637019940103180292,66405,1637019940102892771,,0.0,0.0,0.0,0.0,-1.0,0.0,0.0,0.0,0.0,0.0,0.0,0.0,0.0,-0.00959931088597,0.00872664625997,0.00436332312999,0.0,0.0,0.0,0.0,0.0,0.0,0.0,0.0,0.0,0.161865,0.129492,-9.647154,0.0,0.0,0.0,0.0,0.0,0.0,0.0,0.0,0.0
1637019940123615104,66406,1637019940123236881,,0.0,0.0,0.0,0.0,-1.0,0.0,0.0,0.0,0.0,0.0,0.0,0.0,0.0,-0.011344640138,-0.00261799387799,-0.011344640138,0.0,0.0,0.0,0.0,0.0,0.0,0.0,0.0,0.0,0.064746,0.226611,-9.582408,0.0,0.0,0.0,0.0,0.0,0.0,0.0,0.0,0.0
1637019940143151031,66407,1637019940142867867,,0.0,0.0,0.0,0.0,-1.0,0.0,0.0,0.0,0.0,0.0,0.0,0.0,0.0,0.0,0.00174532925199,-0.00698131700798,0.0,0.0,0.0,0.0,0.0,0.0,0.0,0.0,0.0,0.129492,0.226611,-9.7119,0.0,0.0,0.0,0.0,0.0,0.0,0.0,0.0,0.0
1637019940163078887,66408,1637019940162933893,,0.0,0.0,0.0,0.0,-1.0,0.0,0.0,0.0,0.0,0.0,0.0,0.0,0.0,-0.00349065850399,0.00872664625997,-0.00959931088597,0.0,0.0,0.0,0.0,0.0,0.0,0.0,0.0,0.0,0.097119,0.161865,-9.614781,0.0,0.0,0.0,0.0,0.0,0.0,0.0,0.0,0.0
1637019940183124455,66409,1637019940182860499,,0.0,0.0,0.0,0.0,-1.0,0.0,0.0,0.0,0.0,0.0,0.0,0.0,0.0,0.00261799387799,0.011344640138,0.0,0.0,0.0,0.0,0.0,0.0,0.0,0.0,0.0,0.0,0.129492,0.129492,-9.420543,0.0,0.0,0.0,0.0,0.0,0.0,0.0,0.0,0.0
1637019940203269213,66410,1637019940202839679,,0.0,0.0,0.0,0.0,-1.0,0.0,0.0,0.0,0.0,0.0,0.0,0.0,0.0,0.00523598775598,0.0,-0.00785398163397,0.0,0.0,0.0,0.0,0.0,0.0,0.0,0.0,0.0,0.129492,0.194238,-9.647154,0.0,0.0,0.0,0.0,0.0,0.0,0.0,0.0,0.0
1637019940223694860,66411,1637019940222988542,,0.0,0.0,0.0,0.0,-1.0,0.0,0.0,0.0,0.0,0.0,0.0,0.0,0.0,0.00436332312999,0.00261799387799,-0.00523598775598,0.0,0.0,0.0,0.0,0.0,0.0,0.0,0.0,0.0,0.129492,0.194238,-9.614781,0.0,0.0,0.0,0.0,0.0,0.0,0.0,0.0,0.0
1637019940243352250,66412,1637019940242907039,,0.0,0.0,0.0,0.0,-1.0,0.0,0.0,0.0,0.0,0.0,0.0,0.0,0.0,-0.000872664625997,0.00349065850399,-0.01308996939,0.0,0.0,0.0,0.0,0.0,0.0,0.0,0.0,0.0,0.097119,0.161865,-9.647154,0.0,0.0,0.0,0.0,0.0,0.0,0.0,0.0,0.0
1637019940263090062,66413,1637019940262876173,,0.0,0.0,0.0,0.0,-1.0,0.0,0.0,0.0,0.0,0.0,0.0,0.0,0.0,0.0,0.00436332312999,-0.00349065850399,0.0,0.0,0.0,0.0,0.0,0.0,0.0,0.0,0.0,0.129492,0.129492,-9.647154,0.0,0.0,0.0,0.0,0.0,0.0,0.0,0.0,0.0
1637019940283170310,66414,1637019940282890987,,0.0,0.0,0.0,0.0,-1.0,0.0,0.0,0.0,0.0,0.0,0.0,0.0,0.0,-0.00436332312999,0.00174532925199,-0.01308996939,0.0,0.0,0.0,0.0,0.0,0.0,0.0,0.0,0.0,0.161865,0.064746,-9.614781,0.0,0.0,0.0,0.0,0.0,0.0,0.0,0.0,0.0
1637019940303120390,66415,1637019940302867369,,0.0,0.0,0.0,0.0,-1.0,0.0,0.0,0.0,0.0,0.0,0.0,0.0,0.0,-0.00349065850399,0.00785398163397,0.000872664625997,0.0,0.0,0.0,0.0,0.0,0.0,0.0,0.0,0.0,-0.161865,0.097119,-9.614781,0.0,0.0,0.0,0.0,0.0,0.0,0.0,0.0,0.0
1637019940323333562,66416,1637019940322847052,,0.0,0.0,0.0,0.0,-1.0,0.0,0.0,0.0,0.0,0.0,0.0,0.0,0.0,0.0,0.00349065850399,-0.010471975512,0.0,0.0,0.0,0.0,0.0,0.0,0.0,0.0,0.0,0.129492,0.129492,-9.582408,0.0,0.0,0.0,0.0,0.0,0.0,0.0,0.0,0.0
1637019940343290616,66417,1637019940342979639,,0.0,0.0,0.0,0.0,-1.0,0.0,0.0,0.0,0.0,0.0,0.0,0.0,0.0,-0.00698131700798,0.011344640138,0.00872664625997,0.0,0.0,0.0,0.0,0.0,0.0,0.0,0.0,0.0,0.194238,0.226611,-9.679527,0.0,0.0,0.0,0.0,0.0,0.0,0.0,0.0,0.0
1637019940363150832,66418,1637019940362992270,,0.0,0.0,0.0,0.0,-1.0,0.0,0.0,0.0,0.0,0.0,0.0,0.0,0.0,-0.00261799387799,0.0,-0.00698131700798,0.0,0.0,0.0,0.0,0.0,0.0,0.0,0.0,0.0,0.064746,0.129492,-9.582408,0.0,0.0,0.0,0.0,0.0,0.0,0.0,0.0,0.0
1637019940383183883,66419,1637019940382903203,,0.0,0.0,0.0,0.0,-1.0,0.0,0.0,0.0,0.0,0.0,0.0,0.0,0.0,0.0,0.010471975512,-0.013962634016,0.0,0.0,0.0,0.0,0.0,0.0,0.0,0.0,0.0,0.194238,0.097119,-9.485289,0.0,0.0,0.0,0.0,0.0,0.0,0.0,0.0,0.0
1637019940403249724,66420,1637019940402832674,,0.0,0.0,0.0,0.0,-1.0,0.0,0.0,0.0,0.0,0.0,0.0,0.0,0.0,0.00610865238198,0.00610865238198,-0.010471975512,0.0,0.0,0.0,0.0,0.0,0.0,0.0,0.0,0.0,0.097119,0.194238,-9.614781,0.0,0.0,0.0,0.0,0.0,0.0,0.0,0.0,0.0
1637019940424280046,66421,1637019940422842562,,0.0,0.0,0.0,0.0,-1.0,0.0,0.0,0.0,0.0,0.0,0.0,0.0,0.0,0.00261799387799,0.00261799387799,-0.00349065850399,0.0,0.0,0.0,0.0,0.0,0.0,0.0,0.0,0.0,0.129492,0.291357,-9.7119,0.0,0.0,0.0,0.0,0.0,0.0,0.0,0.0,0.0
1637019940443438684,66422,1637019940442857691,,0.0,0.0,0.0,0.0,-1.0,0.0,0.0,0.0,0.0,0.0,0.0,0.0,0.0,-0.00261799387799,0.00174532925199,-0.00698131700798,0.0,0.0,0.0,0.0,0.0,0.0,0.0,0.0,0.0,0.129492,0.129492,-9.647154,0.0,0.0,0.0,0.0,0.0,0.0,0.0,0.0,0.0
1637019940463169350,66423,1637019940462858950,,0.0,0.0,0.0,0.0,-1.0,0.0,0.0,0.0,0.0,0.0,0.0,0.0,0.0,-0.000872664625997,0.00523598775598,-0.00785398163397,0.0,0.0,0.0,0.0,0.0,0.0,0.0,0.0,0.0,0.129492,0.129492,-9.582408,0.0,0.0,0.0,0.0,0.0,0.0,0.0,0.0,0.0
1637019940483254568,66424,1637019940482988421,,0.0,0.0,0.0,0.0,-1.0,0.0,0.0,0.0,0.0,0.0,0.0,0.0,0.0,0.0,0.00261799387799,-0.00959931088597,0.0,0.0,0.0,0.0,0.0,0.0,0.0,0.0,0.0,0.32373,0.064746,-9.7119,0.0,0.0,0.0,0.0,0.0,0.0,0.0,0.0,0.0
1637019940503080682,66425,1637019940502877381,,0.0,0.0,0.0,0.0,-1.0,0.0,0.0,0.0,0.0,0.0,0.0,0.0,0.0,0.00436332312999,-0.000872664625997,-0.00872664625997,0.0,0.0,0.0,0.0,0.0,0.0,0.0,0.0,0.0,0.032373,0.097119,-9.614781,0.0,0.0,0.0,0.0,0.0,0.0,0.0,0.0,0.0
1637019940523155894,66426,1637019940522840245,,0.0,0.0,0.0,0.0,-1.0,0.0,0.0,0.0,0.0,0.0,0.0,0.0,0.0,0.00436332312999,-0.00610865238198,-0.00610865238198,0.0,0.0,0.0,0.0,0.0,0.0,0.0,0.0,0.0,0.064746,0.161865,-9.744273,0.0,0.0,0.0,0.0,0.0,0.0,0.0,0.0,0.0
1637019940543399447,66427,1637019940542901515,,0.0,0.0,0.0,0.0,-1.0,0.0,0.0,0.0,0.0,0.0,0.0,0.0,0.0,0.0,0.012217304764,-0.0157079632679,0.0,0.0,0.0,0.0,0.0,0.0,0.0,0.0,0.0,0.129492,0.161865,-9.614781,0.0,0.0,0.0,0.0,0.0,0.0,0.0,0.0,0.0
1637019940563166271,66428,1637019940562850821,,0.0,0.0,0.0,0.0,-1.0,0.0,0.0,0.0,0.0,0.0,0.0,0.0,0.0,0.00436332312999,0.0,-0.00785398163397,0.0,0.0,0.0,0.0,0.0,0.0,0.0,0.0,0.0,0.064746,0.129492,-9.582408,0.0,0.0,0.0,0.0,0.0,0.0,0.0,0.0,0.0
1637019940583088832,66429,1637019940582897625,,0.0,0.0,0.0,0.0,-1.0,0.0,0.0,0.0,0.0,0.0,0.0,0.0,0.0,0.00436332312999,0.00523598775598,-0.00610865238198,0.0,0.0,0.0,0.0,0.0,0.0,0.0,0.0,0.0,0.129492,0.161865,-9.679527,0.0,0.0,0.0,0.0,0.0,0.0,0.0,0.0,0.0
1637019940603141749,66430,1637019940602890317,,0.0,0.0,0.0,0.0,-1.0,0.0,0.0,0.0,0.0,0.0,0.0,0.0,0.0,0.0,0.00349065850399,-0.000872664625997,0.0,0.0,0.0,0.0,0.0,0.0,0.0,0.0,0.0,0.064746,0.032373,-9.614781,0.0,0.0,0.0,0.0,0.0,0.0,0.0,0.0,0.0
1637019940623301602,66431,1637019940622885721,,0.0,0.0,0.0,0.0,-1.0,0.0,0.0,0.0,0.0,0.0,0.0,0.0,0.0,-0.00698131700798,0.00959931088597,-0.00785398163397,0.0,0.0,0.0,0.0,0.0,0.0,0.0,0.0,0.0,0.194238,0.194238,-9.582408,0.0,0.0,0.0,0.0,0.0,0.0,0.0,0.0,0.0
1637019940643120094,66432,1637019940642883859,,0.0,0.0,0.0,0.0,-1.0,0.0,0.0,0.0,0.0,0.0,0.0,0.0,0.0,-0.00174532925199,0.011344640138,-0.00436332312999,0.0,0.0,0.0,0.0,0.0,0.0,0.0,0.0,0.0,0.064746,0.097119,-9.614781,0.0,0.0,0.0,0.0,0.0,0.0,0.0,0.0,0.0
1637019940663107001,66433,1637019940662879737,,0.0,0.0,0.0,0.0,-1.0,0.0,0.0,0.0,0.0,0.0,0.0,0.0,0.0,0.00436332312999,0.00523598775598,0.0,0.0,0.0,0.0,0.0,0.0,0.0,0.0,0.0,0.0,0.097119,0.194238,-9.647154,0.0,0.0,0.0,0.0,0.0,0.0,0.0,0.0,0.0
1637019940683111273,66434,1637019940682893725,,0.0,0.0,0.0,0.0,-1.0,0.0,0.0,0.0,0.0,0.0,0.0,0.0,0.0,0.00349065850399,0.00174532925199,-0.00959931088597,0.0,0.0,0.0,0.0,0.0,0.0,0.0,0.0,0.0,0.129492,0.161865,-9.614781,0.0,0.0,0.0,0.0,0.0,0.0,0.0,0.0,0.0
1637019940703045777,66435,1637019940702869106,,0.0,0.0,0.0,0.0,-1.0,0.0,0.0,0.0,0.0,0.0,0.0,0.0,0.0,0.00610865238198,0.00785398163397,-0.00785398163397,0.0,0.0,0.0,0.0,0.0,0.0,0.0,0.0,0.0,0.097119,0.097119,-9.647154,0.0,0.0,0.0,0.0,0.0,0.0,0.0,0.0,0.0
1637019940723605537,66436,1637019940722833662,,0.0,0.0,0.0,0.0,-1.0,0.0,0.0,0.0,0.0,0.0,0.0,0.0,0.0,-0.00436332312999,0.00785398163397,-0.00436332312999,0.0,0.0,0.0,0.0,0.0,0.0,0.0,0.0,0.0,0.064746,0.194238,-9.647154,0.0,0.0,0.0,0.0,0.0,0.0,0.0,0.0,0.0
1637019940743165105,66437,1637019940742914941,,0.0,0.0,0.0,0.0,-1.0,0.0,0.0,0.0,0.0,0.0,0.0,0.0,0.0,-0.00523598775598,0.014835298642,-0.000872664625997,0.0,0.0,0.0,0.0,0.0,0.0,0.0,0.0,0.0,0.129492,0.161865,-9.647154,0.0,0.0,0.0,0.0,0.0,0.0,0.0,0.0,0.0
1637019940763153616,66438,1637019940762880168,,0.0,0.0,0.0,0.0,-1.0,0.0,0.0,0.0,0.0,0.0,0.0,0.0,0.0,0.0,0.00174532925199,-0.00872664625997,0.0,0.0,0.0,0.0,0.0,0.0,0.0,0.0,0.0,0.097119,0.129492,-9.614781,0.0,0.0,0.0,0.0,0.0,0.0,0.0,0.0,0.0
1637019940783091665,66439,1637019940782870545,,0.0,0.0,0.0,0.0,-1.0,0.0,0.0,0.0,0.0,0.0,0.0,0.0,0.0,0.0,0.00698131700798,-0.00523598775598,0.0,0.0,0.0,0.0,0.0,0.0,0.0,0.0,0.0,0.097119,0.194238,-9.582408,0.0,0.0,0.0,0.0,0.0,0.0,0.0,0.0,0.0
1637019940803179730,66440,1637019940802872673,,0.0,0.0,0.0,0.0,-1.0,0.0,0.0,0.0,0.0,0.0,0.0,0.0,0.0,-0.00959931088597,0.0,-0.000872664625997,0.0,0.0,0.0,0.0,0.0,0.0,0.0,0.0,0.0,0.129492,0.161865,-9.679527,0.0,0.0,0.0,0.0,0.0,0.0,0.0,0.0,0.0
1637019940823077377,66441,1637019940822861613,,0.0,0.0,0.0,0.0,-1.0,0.0,0.0,0.0,0.0,0.0,0.0,0.0,0.0,-0.00436332312999,0.00698131700798,-0.00872664625997,0.0,0.0,0.0,0.0,0.0,0.0,0.0,0.0,0.0,0.032373,0.161865,-9.679527,0.0,0.0,0.0,0.0,0.0,0.0,0.0,0.0,0.0
1637019940843281099,66442,1637019940842823246,,0.0,0.0,0.0,0.0,-1.0,0.0,0.0,0.0,0.0,0.0,0.0,0.0,0.0,-0.00261799387799,-0.000872664625997,-0.011344640138,0.0,0.0,0.0,0.0,0.0,0.0,0.0,0.0,0.0,0.129492,0.129492,-9.776646,0.0,0.0,0.0,0.0,0.0,0.0,0.0,0.0,0.0
1637019940863144932,66443,1637019940862893842,,0.0,0.0,0.0,0.0,-1.0,0.0,0.0,0.0,0.0,0.0,0.0,0.0,0.0,-0.00261799387799,0.00349065850399,-0.00349065850399,0.0,0.0,0.0,0.0,0.0,0.0,0.0,0.0,0.0,0.097119,0.129492,-9.614781,0.0,0.0,0.0,0.0,0.0,0.0,0.0,0.0,0.0
1637019940883159076,66444,1637019940882911871,,0.0,0.0,0.0,0.0,-1.0,0.0,0.0,0.0,0.0,0.0,0.0,0.0,0.0,-0.00436332312999,0.0,-0.010471975512,0.0,0.0,0.0,0.0,0.0,0.0,0.0,0.0,0.0,0.097119,0.064746,-9.7119,0.0,0.0,0.0,0.0,0.0,0.0,0.0,0.0,0.0
1637019940903192081,66445,1637019940902879555,,0.0,0.0,0.0,0.0,-1.0,0.0,0.0,0.0,0.0,0.0,0.0,0.0,0.0,-0.00349065850399,0.010471975512,-0.00872664625997,0.0,0.0,0.0,0.0,0.0,0.0,0.0,0.0,0.0,0.064746,0.129492,-9.582408,0.0,0.0,0.0,0.0,0.0,0.0,0.0,0.0,0.0
1637019940923278535,66446,1637019940922875629,,0.0,0.0,0.0,0.0,-1.0,0.0,0.0,0.0,0.0,0.0,0.0,0.0,0.0,0.0,0.00785398163397,-0.00349065850399,0.0,0.0,0.0,0.0,0.0,0.0,0.0,0.0,0.0,0.097119,0.064746,-9.582408,0.0,0.0,0.0,0.0,0.0,0.0,0.0,0.0,0.0
1637019940943017312,66447,1637019940942861420,,0.0,0.0,0.0,0.0,-1.0,0.0,0.0,0.0,0.0,0.0,0.0,0.0,0.0,-0.00174532925199,0.014835298642,-0.00349065850399,0.0,0.0,0.0,0.0,0.0,0.0,0.0,0.0,0.0,0.129492,0.097119,-9.7119,0.0,0.0,0.0,0.0,0.0,0.0,0.0,0.0,0.0
1637019940963116503,66448,1637019940962876324,,0.0,0.0,0.0,0.0,-1.0,0.0,0.0,0.0,0.0,0.0,0.0,0.0,0.0,0.00174532925199,0.0,-0.0226892802759,0.0,0.0,0.0,0.0,0.0,0.0,0.0,0.0,0.0,0.0,0.032373,-9.582408,0.0,0.0,0.0,0.0,0.0,0.0,0.0,0.0,0.0
1637019940983052249,66449,1637019940982874175,,0.0,0.0,0.0,0.0,-1.0,0.0,0.0,0.0,0.0,0.0,0.0,0.0,0.0,-0.00174532925199,0.00610865238198,-0.00261799387799,0.0,0.0,0.0,0.0,0.0,0.0,0.0,0.0,0.0,0.226611,0.064746,-9.647154,0.0,0.0,0.0,0.0,0.0,0.0,0.0,0.0,0.0
1637019941003007238,66450,1637019941002856343,,0.0,0.0,0.0,0.0,-1.0,0.0,0.0,0.0,0.0,0.0,0.0,0.0,0.0,0.00610865238198,-0.00785398163397,-0.00785398163397,0.0,0.0,0.0,0.0,0.0,0.0,0.0,0.0,0.0,0.097119,0.129492,-9.420543,0.0,0.0,0.0,0.0,0.0,0.0,0.0,0.0,0.0
1637019941023278865,66451,1637019941022824667,,0.0,0.0,0.0,0.0,-1.0,0.0,0.0,0.0,0.0,0.0,0.0,0.0,0.0,0.00261799387799,0.00174532925199,-0.00523598775598,0.0,0.0,0.0,0.0,0.0,0.0,0.0,0.0,0.0,-0.064746,0.129492,-9.679527,0.0,0.0,0.0,0.0,0.0,0.0,0.0,0.0,0.0
1637019941043338199,66452,1637019941042820058,,0.0,0.0,0.0,0.0,-1.0,0.0,0.0,0.0,0.0,0.0,0.0,0.0,0.0,-0.00261799387799,0.0,-0.00872664625997,0.0,0.0,0.0,0.0,0.0,0.0,0.0,0.0,0.0,0.097119,0.129492,-9.679527,0.0,0.0,0.0,0.0,0.0,0.0,0.0,0.0,0.0
1637019941063010129,66453,1637019941062847011,,0.0,0.0,0.0,0.0,-1.0,0.0,0.0,0.0,0.0,0.0,0.0,0.0,0.0,0.00610865238198,0.00523598775598,-0.00872664625997,0.0,0.0,0.0,0.0,0.0,0.0,0.0,0.0,0.0,0.064746,0.194238,-9.582408,0.0,0.0,0.0,0.0,0.0,0.0,0.0,0.0,0.0
1637019941083252099,66454,1637019941082917738,,0.0,0.0,0.0,0.0,-1.0,0.0,0.0,0.0,0.0,0.0,0.0,0.0,0.0,-0.000872664625997,0.00261799387799,-0.00174532925199,0.0,0.0,0.0,0.0,0.0,0.0,0.0,0.0,0.0,0.226611,0.161865,-9.614781,0.0,0.0,0.0,0.0,0.0,0.0,0.0,0.0,0.0
1637019941103164058,66455,1637019941102858242,,0.0,0.0,0.0,0.0,-1.0,0.0,0.0,0.0,0.0,0.0,0.0,0.0,0.0,0.00261799387799,0.013962634016,-0.00261799387799,0.0,0.0,0.0,0.0,0.0,0.0,0.0,0.0,0.0,0.064746,0.161865,-9.550035,0.0,0.0,0.0,0.0,0.0,0.0,0.0,0.0,0.0
1637019941123301588,66456,1637019941122826319,,0.0,0.0,0.0,0.0,-1.0,0.0,0.0,0.0,0.0,0.0,0.0,0.0,0.0,-0.00349065850399,0.012217304764,-0.00349065850399,0.0,0.0,0.0,0.0,0.0,0.0,0.0,0.0,0.0,0.161865,0.129492,-9.679527,0.0,0.0,0.0,0.0,0.0,0.0,0.0,0.0,0.0
1637019941143042495,66457,1637019941142894167,,0.0,0.0,0.0,0.0,-1.0,0.0,0.0,0.0,0.0,0.0,0.0,0.0,0.0,0.00785398163397,0.00349065850399,-0.00785398163397,0.0,0.0,0.0,0.0,0.0,0.0,0.0,0.0,0.0,0.161865,0.161865,-9.614781,0.0,0.0,0.0,0.0,0.0,0.0,0.0,0.0,0.0
1637019941163181928,66458,1637019941162865949,,0.0,0.0,0.0,0.0,-1.0,0.0,0.0,0.0,0.0,0.0,0.0,0.0,0.0,-0.00610865238198,0.00785398163397,-0.00436332312999,0.0,0.0,0.0,0.0,0.0,0.0,0.0,0.0,0.0,0.097119,0.161865,-9.550035,0.0,0.0,0.0,0.0,0.0,0.0,0.0,0.0,0.0
1637019941183269072,66459,1637019941182907206,,0.0,0.0,0.0,0.0,-1.0,0.0,0.0,0.0,0.0,0.0,0.0,0.0,0.0,0.00523598775598,0.00785398163397,-0.00174532925199,0.0,0.0,0.0,0.0,0.0,0.0,0.0,0.0,0.0,0.32373,0.097119,-9.873765,0.0,0.0,0.0,0.0,0.0,0.0,0.0,0.0,0.0
1637019941203238072,66460,1637019941202795649,,0.0,0.0,0.0,0.0,-1.0,0.0,0.0,0.0,0.0,0.0,0.0,0.0,0.0,-0.00523598775598,0.00698131700798,-0.00174532925199,0.0,0.0,0.0,0.0,0.0,0.0,0.0,0.0,0.0,0.129492,0.129492,-9.776646,0.0,0.0,0.0,0.0,0.0,0.0,0.0,0.0,0.0
1637019941223224120,66461,1637019941222840796,,0.0,0.0,0.0,0.0,-1.0,0.0,0.0,0.0,0.0,0.0,0.0,0.0,0.0,-0.00523598775598,0.00523598775598,-0.000872664625997,0.0,0.0,0.0,0.0,0.0,0.0,0.0,0.0,0.0,0.32373,0.129492,-9.647154,0.0,0.0,0.0,0.0,0.0,0.0,0.0,0.0,0.0
1637019941243319084,66462,1637019941242813995,,0.0,0.0,0.0,0.0,-1.0,0.0,0.0,0.0,0.0,0.0,0.0,0.0,0.0,-0.000872664625997,0.00436332312999,-0.00349065850399,0.0,0.0,0.0,0.0,0.0,0.0,0.0,0.0,0.0,0.097119,0.129492,-9.679527,0.0,0.0,0.0,0.0,0.0,0.0,0.0,0.0,0.0
1637019941263043856,66463,1637019941262886961,,0.0,0.0,0.0,0.0,-1.0,0.0,0.0,0.0,0.0,0.0,0.0,0.0,0.0,-0.00698131700798,-0.00349065850399,-0.00174532925199,0.0,0.0,0.0,0.0,0.0,0.0,0.0,0.0,0.0,0.097119,-0.064746,-9.647154,0.0,0.0,0.0,0.0,0.0,0.0,0.0,0.0,0.0
1637019941283274043,66464,1637019941282859017,,0.0,0.0,0.0,0.0,-1.0,0.0,0.0,0.0,0.0,0.0,0.0,0.0,0.0,-0.00436332312999,0.00698131700798,-0.00872664625997,0.0,0.0,0.0,0.0,0.0,0.0,0.0,0.0,0.0,0.097119,0.097119,-9.614781,0.0,0.0,0.0,0.0,0.0,0.0,0.0,0.0,0.0
1637019941303246625,66465,1637019941302865604,,0.0,0.0,0.0,0.0,-1.0,0.0,0.0,0.0,0.0,0.0,0.0,0.0,0.0,-0.00174532925199,0.00174532925199,-0.00785398163397,0.0,0.0,0.0,0.0,0.0,0.0,0.0,0.0,0.0,0.097119,0.097119,-9.614781,0.0,0.0,0.0,0.0,0.0,0.0,0.0,0.0,0.0
1637019941322991646,66466,1637019941322812254,,0.0,0.0,0.0,0.0,-1.0,0.0,0.0,0.0,0.0,0.0,0.0,0.0,0.0,-0.00261799387799,-0.00349065850399,-0.00436332312999,0.0,0.0,0.0,0.0,0.0,0.0,0.0,0.0,0.0,0.291357,0.161865,-9.7119,0.0,0.0,0.0,0.0,0.0,0.0,0.0,0.0,0.0
1637019941343218291,66467,1637019941342821396,,0.0,0.0,0.0,0.0,-1.0,0.0,0.0,0.0,0.0,0.0,0.0,0.0,0.0,-0.012217304764,0.012217304764,-0.00174532925199,0.0,0.0,0.0,0.0,0.0,0.0,0.0,0.0,0.0,0.194238,0.097119,-9.7119,0.0,0.0,0.0,0.0,0.0,0.0,0.0,0.0,0.0
1637019941363208168,66468,1637019941362854525,,0.0,0.0,0.0,0.0,-1.0,0.0,0.0,0.0,0.0,0.0,0.0,0.0,0.0,-0.00174532925199,0.00785398163397,-0.00698131700798,0.0,0.0,0.0,0.0,0.0,0.0,0.0,0.0,0.0,0.161865,0.161865,-9.7119,0.0,0.0,0.0,0.0,0.0,0.0,0.0,0.0,0.0
1637019941383168783,66469,1637019941382888373,,0.0,0.0,0.0,0.0,-1.0,0.0,0.0,0.0,0.0,0.0,0.0,0.0,0.0,0.00436332312999,0.01308996939,-0.00349065850399,0.0,0.0,0.0,0.0,0.0,0.0,0.0,0.0,0.0,0.129492,0.194238,-9.679527,0.0,0.0,0.0,0.0,0.0,0.0,0.0,0.0,0.0
1637019941403051926,66470,1637019941402832739,,0.0,0.0,0.0,0.0,-1.0,0.0,0.0,0.0,0.0,0.0,0.0,0.0,0.0,0.0,0.00174532925199,0.0,0.0,0.0,0.0,0.0,0.0,0.0,0.0,0.0,0.0,0.129492,0.129492,-9.647154,0.0,0.0,0.0,0.0,0.0,0.0,0.0,0.0,0.0
1637019941423040845,66471,1637019941422825760,,0.0,0.0,0.0,0.0,-1.0,0.0,0.0,0.0,0.0,0.0,0.0,0.0,0.0,0.00959931088597,0.00785398163397,0.00959931088597,0.0,0.0,0.0,0.0,0.0,0.0,0.0,0.0,0.0,0.097119,0.129492,-9.517662,0.0,0.0,0.0,0.0,0.0,0.0,0.0,0.0,0.0
1637019941443312917,66472,1637019941442903964,,0.0,0.0,0.0,0.0,-1.0,0.0,0.0,0.0,0.0,0.0,0.0,0.0,0.0,-0.00261799387799,-0.00610865238198,-0.00349065850399,0.0,0.0,0.0,0.0,0.0,0.0,0.0,0.0,0.0,0.161865,0.097119,-9.679527,0.0,0.0,0.0,0.0,0.0,0.0,0.0,0.0,0.0
1637019941463015356,66473,1637019941462832210,,0.0,0.0,0.0,0.0,-1.0,0.0,0.0,0.0,0.0,0.0,0.0,0.0,0.0,-0.00610865238198,0.00785398163397,-0.00436332312999,0.0,0.0,0.0,0.0,0.0,0.0,0.0,0.0,0.0,0.097119,0.161865,-9.582408,0.0,0.0,0.0,0.0,0.0,0.0,0.0,0.0,0.0
1637019941483112160,66474,1637019941482856184,,0.0,0.0,0.0,0.0,-1.0,0.0,0.0,0.0,0.0,0.0,0.0,0.0,0.0,-0.00174532925199,0.000872664625997,-0.00785398163397,0.0,0.0,0.0,0.0,0.0,0.0,0.0,0.0,0.0,0.194238,0.129492,-9.679527,0.0,0.0,0.0,0.0,0.0,0.0,0.0,0.0,0.0
1637019941503009252,66475,1637019941502840184,,0.0,0.0,0.0,0.0,-1.0,0.0,0.0,0.0,0.0,0.0,0.0,0.0,0.0,-0.00349065850399,0.00785398163397,-0.00174532925199,0.0,0.0,0.0,0.0,0.0,0.0,0.0,0.0,0.0,0.129492,0.194238,-9.7119,0.0,0.0,0.0,0.0,0.0,0.0,0.0,0.0,0.0
1637019941523067417,66476,1637019941522855277,,0.0,0.0,0.0,0.0,-1.0,0.0,0.0,0.0,0.0,0.0,0.0,0.0,0.0,-0.00436332312999,0.00872664625997,0.000872664625997,0.0,0.0,0.0,0.0,0.0,0.0,0.0,0.0,0.0,0.064746,0.129492,-9.614781,0.0,0.0,0.0,0.0,0.0,0.0,0.0,0.0,0.0
1637019941543130783,66477,1637019941542897401,,0.0,0.0,0.0,0.0,-1.0,0.0,0.0,0.0,0.0,0.0,0.0,0.0,0.0,-0.00610865238198,0.00523598775598,0.00349065850399,0.0,0.0,0.0,0.0,0.0,0.0,0.0,0.0,0.0,0.161865,0.161865,-9.647154,0.0,0.0,0.0,0.0,0.0,0.0,0.0,0.0,0.0
1637019941563025925,66478,1637019941562777395,,0.0,0.0,0.0,0.0,-1.0,0.0,0.0,0.0,0.0,0.0,0.0,0.0,0.0,-0.011344640138,0.00785398163397,-0.00785398163397,0.0,0.0,0.0,0.0,0.0,0.0,0.0,0.0,0.0,0.064746,0.194238,-9.614781,0.0,0.0,0.0,0.0,0.0,0.0,0.0,0.0,0.0
1637019941582879516,66479,1637019941582738240,,0.0,0.0,0.0,0.0,-1.0,0.0,0.0,0.0,0.0,0.0,0.0,0.0,0.0,-0.00349065850399,0.010471975512,-0.00261799387799,0.0,0.0,0.0,0.0,0.0,0.0,0.0,0.0,0.0,0.161865,0.226611,-9.614781,0.0,0.0,0.0,0.0,0.0,0.0,0.0,0.0,0.0
1637019941602918829,66480,1637019941602712973,,0.0,0.0,0.0,0.0,-1.0,0.0,0.0,0.0,0.0,0.0,0.0,0.0,0.0,-0.000872664625997,0.00959931088597,-0.00872664625997,0.0,0.0,0.0,0.0,0.0,0.0,0.0,0.0,0.0,0.129492,0.097119,-9.614781,0.0,0.0,0.0,0.0,0.0,0.0,0.0,0.0,0.0
1637019941623101476,66481,1637019941622765283,,0.0,0.0,0.0,0.0,-1.0,0.0,0.0,0.0,0.0,0.0,0.0,0.0,0.0,-0.00959931088597,0.0,-0.00523598775598,0.0,0.0,0.0,0.0,0.0,0.0,0.0,0.0,0.0,0.129492,0.032373,-9.614781,0.0,0.0,0.0,0.0,0.0,0.0,0.0,0.0,0.0
1637019941642821012,66482,1637019941642725379,,0.0,0.0,0.0,0.0,-1.0,0.0,0.0,0.0,0.0,0.0,0.0,0.0,0.0,-0.00872664625997,0.00610865238198,-0.01308996939,0.0,0.0,0.0,0.0,0.0,0.0,0.0,0.0,0.0,0.097119,0.129492,-9.647154,0.0,0.0,0.0,0.0,0.0,0.0,0.0,0.0,0.0
1637019941663041968,66483,1637019941662800988,,0.0,0.0,0.0,0.0,-1.0,0.0,0.0,0.0,0.0,0.0,0.0,0.0,0.0,0.00872664625997,0.00174532925199,-0.00959931088597,0.0,0.0,0.0,0.0,0.0,0.0,0.0,0.0,0.0,0.0,0.129492,-9.582408,0.0,0.0,0.0,0.0,0.0,0.0,0.0,0.0,0.0
1637019941683013036,66484,1637019941682846879,,0.0,0.0,0.0,0.0,-1.0,0.0,0.0,0.0,0.0,0.0,0.0,0.0,0.0,0.0,-0.00261799387799,-0.00349065850399,0.0,0.0,0.0,0.0,0.0,0.0,0.0,0.0,0.0,0.097119,0.129492,-9.679527,0.0,0.0,0.0,0.0,0.0,0.0,0.0,0.0,0.0
1637019941703134271,66485,1637019941702841700,,0.0,0.0,0.0,0.0,-1.0,0.0,0.0,0.0,0.0,0.0,0.0,0.0,0.0,0.00785398163397,0.00436332312999,-0.00261799387799,0.0,0.0,0.0,0.0,0.0,0.0,0.0,0.0,0.0,0.097119,0.097119,-9.582408,0.0,0.0,0.0,0.0,0.0,0.0,0.0,0.0,0.0
1637019941723299220,66486,1637019941722808182,,0.0,0.0,0.0,0.0,-1.0,0.0,0.0,0.0,0.0,0.0,0.0,0.0,0.0,0.00261799387799,-0.00174532925199,-0.01308996939,0.0,0.0,0.0,0.0,0.0,0.0,0.0,0.0,0.0,0.161865,0.032373,-9.647154,0.0,0.0,0.0,0.0,0.0,0.0,0.0,0.0,0.0
1637019941743138312,66487,1637019941742824523,,0.0,0.0,0.0,0.0,-1.0,0.0,0.0,0.0,0.0,0.0,0.0,0.0,0.0,-0.00261799387799,0.013962634016,-0.00436332312999,0.0,0.0,0.0,0.0,0.0,0.0,0.0,0.0,0.0,0.161865,0.161865,-9.647154,0.0,0.0,0.0,0.0,0.0,0.0,0.0,0.0,0.0
1637019941763386615,66488,1637019941763029842,,0.0,0.0,0.0,0.0,-1.0,0.0,0.0,0.0,0.0,0.0,0.0,0.0,0.0,-0.00698131700798,-0.00174532925199,-0.00785398163397,0.0,0.0,0.0,0.0,0.0,0.0,0.0,0.0,0.0,0.129492,0.129492,-9.647154,0.0,0.0,0.0,0.0,0.0,0.0,0.0,0.0,0.0
1637019941783114244,66489,1637019941782853867,,0.0,0.0,0.0,0.0,-1.0,0.0,0.0,0.0,0.0,0.0,0.0,0.0,0.0,0.0,0.00261799387799,-0.00261799387799,0.0,0.0,0.0,0.0,0.0,0.0,0.0,0.0,0.0,0.161865,0.097119,-9.7119,0.0,0.0,0.0,0.0,0.0,0.0,0.0,0.0,0.0
1637019941803287751,66490,1637019941802846390,,0.0,0.0,0.0,0.0,-1.0,0.0,0.0,0.0,0.0,0.0,0.0,0.0,0.0,0.00174532925199,0.00959931088597,-0.00959931088597,0.0,0.0,0.0,0.0,0.0,0.0,0.0,0.0,0.0,0.097119,0.064746,-9.647154,0.0,0.0,0.0,0.0,0.0,0.0,0.0,0.0,0.0
1637019941823064713,66491,1637019941822823253,,0.0,0.0,0.0,0.0,-1.0,0.0,0.0,0.0,0.0,0.0,0.0,0.0,0.0,-0.000872664625997,0.00436332312999,-0.00523598775598,0.0,0.0,0.0,0.0,0.0,0.0,0.0,0.0,0.0,0.064746,0.064746,-9.582408,0.0,0.0,0.0,0.0,0.0,0.0,0.0,0.0,0.0
1637019941842994355,66492,1637019941842801764,,0.0,0.0,0.0,0.0,-1.0,0.0,0.0,0.0,0.0,0.0,0.0,0.0,0.0,0.00610865238198,0.0,-0.01308996939,0.0,0.0,0.0,0.0,0.0,0.0,0.0,0.0,0.0,0.064746,0.097119,-9.582408,0.0,0.0,0.0,0.0,0.0,0.0,0.0,0.0,0.0
1637019941862982869,66493,1637019941862819697,,0.0,0.0,0.0,0.0,-1.0,0.0,0.0,0.0,0.0,0.0,0.0,0.0,0.0,-0.00872664625997,0.00523598775598,-0.00785398163397,0.0,0.0,0.0,0.0,0.0,0.0,0.0,0.0,0.0,0.097119,0.129492,-9.647154,0.0,0.0,0.0,0.0,0.0,0.0,0.0,0.0,0.0
1637019941883149772,66494,1637019941882845320,,0.0,0.0,0.0,0.0,-1.0,0.0,0.0,0.0,0.0,0.0,0.0,0.0,0.0,-0.00523598775598,0.00698131700798,-0.00174532925199,0.0,0.0,0.0,0.0,0.0,0.0,0.0,0.0,0.0,0.129492,0.129492,-9.614781,0.0,0.0,0.0,0.0,0.0,0.0,0.0,0.0,0.0
1637019941903154793,66495,1637019941902827340,,0.0,0.0,0.0,0.0,-1.0,0.0,0.0,0.0,0.0,0.0,0.0,0.0,0.0,-0.00523598775598,0.00523598775598,0.000872664625997,0.0,0.0,0.0,0.0,0.0,0.0,0.0,0.0,0.0,0.129492,0.194238,-9.38817,0.0,0.0,0.0,0.0,0.0,0.0,0.0,0.0,0.0
1637019941923658973,66496,1637019941922913601,,0.0,0.0,0.0,0.0,-1.0,0.0,0.0,0.0,0.0,0.0,0.0,0.0,0.0,-0.00174532925199,0.00349065850399,-0.0157079632679,0.0,0.0,0.0,0.0,0.0,0.0,0.0,0.0,0.0,0.129492,0.161865,-9.614781,0.0,0.0,0.0,0.0,0.0,0.0,0.0,0.0,0.0
1637019941943163762,66497,1637019941942830200,,0.0,0.0,0.0,0.0,-1.0,0.0,0.0,0.0,0.0,0.0,0.0,0.0,0.0,0.00698131700798,-0.00174532925199,-0.00872664625997,0.0,0.0,0.0,0.0,0.0,0.0,0.0,0.0,0.0,0.097119,0.161865,-9.614781,0.0,0.0,0.0,0.0,0.0,0.0,0.0,0.0,0.0
1637019941963261837,66498,1637019941962856670,,0.0,0.0,0.0,0.0,-1.0,0.0,0.0,0.0,0.0,0.0,0.0,0.0,0.0,-0.00959931088597,0.00959931088597,-0.00610865238198,0.0,0.0,0.0,0.0,0.0,0.0,0.0,0.0,0.0,0.129492,0.161865,-9.582408,0.0,0.0,0.0,0.0,0.0,0.0,0.0,0.0,0.0
1637019941983057717,66499,1637019941982821154,,0.0,0.0,0.0,0.0,-1.0,0.0,0.0,0.0,0.0,0.0,0.0,0.0,0.0,-0.00610865238198,0.00698131700798,-0.00174532925199,0.0,0.0,0.0,0.0,0.0,0.0,0.0,0.0,0.0,0.064746,0.097119,-9.647154,0.0,0.0,0.0,0.0,0.0,0.0,0.0,0.0,0.0
1637019942003145388,66500,1637019942002872148,,0.0,0.0,0.0,0.0,-1.0,0.0,0.0,0.0,0.0,0.0,0.0,0.0,0.0,-0.00872664625997,0.010471975512,0.000872664625997,0.0,0.0,0.0,0.0,0.0,0.0,0.0,0.0,0.0,0.097119,0.097119,-9.485289,0.0,0.0,0.0,0.0,0.0,0.0,0.0,0.0,0.0
1637019942023252736,66501,1637019942022853979,,0.0,0.0,0.0,0.0,-1.0,0.0,0.0,0.0,0.0,0.0,0.0,0.0,0.0,0.0,-0.00349065850399,-0.014835298642,0.0,0.0,0.0,0.0,0.0,0.0,0.0,0.0,0.0,0.097119,0.097119,-9.679527,0.0,0.0,0.0,0.0,0.0,0.0,0.0,0.0,0.0
1637019942043471684,66502,1637019942042868720,,0.0,0.0,0.0,0.0,-1.0,0.0,0.0,0.0,0.0,0.0,0.0,0.0,0.0,-0.000872664625997,0.00261799387799,-0.011344640138,0.0,0.0,0.0,0.0,0.0,0.0,0.0,0.0,0.0,0.161865,0.032373,-9.7119,0.0,0.0,0.0,0.0,0.0,0.0,0.0,0.0,0.0
1637019942063114695,66503,1637019942062862346,,0.0,0.0,0.0,0.0,-1.0,0.0,0.0,0.0,0.0,0.0,0.0,0.0,0.0,0.00698131700798,0.00349065850399,0.0,0.0,0.0,0.0,0.0,0.0,0.0,0.0,0.0,0.0,0.097119,0.097119,-9.614781,0.0,0.0,0.0,0.0,0.0,0.0,0.0,0.0,0.0
1637019942083124337,66504,1637019942082921509,,0.0,0.0,0.0,0.0,-1.0,0.0,0.0,0.0,0.0,0.0,0.0,0.0,0.0,-0.00698131700798,0.010471975512,-0.011344640138,0.0,0.0,0.0,0.0,0.0,0.0,0.0,0.0,0.0,0.194238,0.097119,-9.744273,0.0,0.0,0.0,0.0,0.0,0.0,0.0,0.0,0.0
1637019942103252594,66505,1637019942102834314,,0.0,0.0,0.0,0.0,-1.0,0.0,0.0,0.0,0.0,0.0,0.0,0.0,0.0,0.0,0.00349065850399,-0.000872664625997,0.0,0.0,0.0,0.0,0.0,0.0,0.0,0.0,0.0,0.161865,0.097119,-9.647154,0.0,0.0,0.0,0.0,0.0,0.0,0.0,0.0,0.0
1637019942122992363,66506,1637019942122788995,,0.0,0.0,0.0,0.0,-1.0,0.0,0.0,0.0,0.0,0.0,0.0,0.0,0.0,-0.00349065850399,-0.00174532925199,-0.00698131700798,0.0,0.0,0.0,0.0,0.0,0.0,0.0,0.0,0.0,0.032373,0.129492,-9.647154,0.0,0.0,0.0,0.0,0.0,0.0,0.0,0.0,0.0
1637019942143323361,66507,1637019942142817460,,0.0,0.0,0.0,0.0,-1.0,0.0,0.0,0.0,0.0,0.0,0.0,0.0,0.0,0.00174532925199,-0.00785398163397,-0.00785398163397,0.0,0.0,0.0,0.0,0.0,0.0,0.0,0.0,0.0,0.129492,0.129492,-9.647154,0.0,0.0,0.0,0.0,0.0,0.0,0.0,0.0,0.0
1637019942163063556,66508,1637019942162825862,,0.0,0.0,0.0,0.0,-1.0,0.0,0.0,0.0,0.0,0.0,0.0,0.0,0.0,0.0,0.000872664625997,-0.00610865238198,0.0,0.0,0.0,0.0,0.0,0.0,0.0,0.0,0.0,0.0,0.097119,-9.614781,0.0,0.0,0.0,0.0,0.0,0.0,0.0,0.0,0.0
1637019942183054006,66509,1637019942182826381,,0.0,0.0,0.0,0.0,-1.0,0.0,0.0,0.0,0.0,0.0,0.0,0.0,0.0,0.00349065850399,0.010471975512,-0.000872664625997,0.0,0.0,0.0,0.0,0.0,0.0,0.0,0.0,0.0,0.032373,0.129492,-9.582408,0.0,0.0,0.0,0.0,0.0,0.0,0.0,0.0,0.0
1637019942203024794,66510,1637019942202888012,,0.0,0.0,0.0,0.0,-1.0,0.0,0.0,0.0,0.0,0.0,0.0,0.0,0.0,-0.00261799387799,0.00872664625997,-0.00261799387799,0.0,0.0,0.0,0.0,0.0,0.0,0.0,0.0,0.0,0.226611,0.161865,-9.647154,0.0,0.0,0.0,0.0,0.0,0.0,0.0,0.0,0.0
1637019942223396566,66511,1637019942222832412,,0.0,0.0,0.0,0.0,-1.0,0.0,0.0,0.0,0.0,0.0,0.0,0.0,0.0,0.00174532925199,0.0,-0.00523598775598,0.0,0.0,0.0,0.0,0.0,0.0,0.0,0.0,0.0,0.129492,0.097119,-9.679527,0.0,0.0,0.0,0.0,0.0,0.0,0.0,0.0,0.0
1637019942243164132,66512,1637019942242809896,,0.0,0.0,0.0,0.0,-1.0,0.0,0.0,0.0,0.0,0.0,0.0,0.0,0.0,0.0,0.00523598775598,-0.00349065850399,0.0,0.0,0.0,0.0,0.0,0.0,0.0,0.0,0.0,0.129492,0.097119,-9.582408,0.0,0.0,0.0,0.0,0.0,0.0,0.0,0.0,0.0
1637019942263211363,66513,1637019942262786754,,0.0,0.0,0.0,0.0,-1.0,0.0,0.0,0.0,0.0,0.0,0.0,0.0,0.0,-0.00698131700798,0.0,0.0,0.0,0.0,0.0,0.0,0.0,0.0,0.0,0.0,0.0,0.226611,0.258984,-9.550035,0.0,0.0,0.0,0.0,0.0,0.0,0.0,0.0,0.0
1637019942283031311,66514,1637019942282799631,,0.0,0.0,0.0,0.0,-1.0,0.0,0.0,0.0,0.0,0.0,0.0,0.0,0.0,0.00610865238198,0.00261799387799,-0.00261799387799,0.0,0.0,0.0,0.0,0.0,0.0,0.0,0.0,0.0,0.194238,0.161865,-9.679527,0.0,0.0,0.0,0.0,0.0,0.0,0.0,0.0,0.0
1637019942303120801,66515,1637019942302860238,,0.0,0.0,0.0,0.0,-1.0,0.0,0.0,0.0,0.0,0.0,0.0,0.0,0.0,-0.00436332312999,0.00174532925199,-0.00959931088597,0.0,0.0,0.0,0.0,0.0,0.0,0.0,0.0,0.0,0.0,0.161865,-9.614781,0.0,0.0,0.0,0.0,0.0,0.0,0.0,0.0,0.0
1637019942323395132,66516,1637019942322830776,,0.0,0.0,0.0,0.0,-1.0,0.0,0.0,0.0,0.0,0.0,0.0,0.0,0.0,-0.00174532925199,0.00698131700798,0.000872664625997,0.0,0.0,0.0,0.0,0.0,0.0,0.0,0.0,0.0,0.097119,0.161865,-9.647154,0.0,0.0,0.0,0.0,0.0,0.0,0.0,0.0,0.0
1637019942343132422,66517,1637019942342839251,,0.0,0.0,0.0,0.0,-1.0,0.0,0.0,0.0,0.0,0.0,0.0,0.0,0.0,0.000872664625997,0.00174532925199,-0.00785398163397,0.0,0.0,0.0,0.0,0.0,0.0,0.0,0.0,0.0,0.097119,0.194238,-9.679527,0.0,0.0,0.0,0.0,0.0,0.0,0.0,0.0,0.0
1637019942363037738,66518,1637019942362828562,,0.0,0.0,0.0,0.0,-1.0,0.0,0.0,0.0,0.0,0.0,0.0,0.0,0.0,0.00959931088597,-0.00174532925199,-0.00610865238198,0.0,0.0,0.0,0.0,0.0,0.0,0.0,0.0,0.0,0.194238,0.161865,-9.614781,0.0,0.0,0.0,0.0,0.0,0.0,0.0,0.0,0.0
1637019942383083185,66519,1637019942382793869,,0.0,0.0,0.0,0.0,-1.0,0.0,0.0,0.0,0.0,0.0,0.0,0.0,0.0,-0.00698131700798,0.010471975512,-0.00959931088597,0.0,0.0,0.0,0.0,0.0,0.0,0.0,0.0,0.0,0.129492,0.194238,-9.614781,0.0,0.0,0.0,0.0,0.0,0.0,0.0,0.0,0.0
1637019942402971922,66520,1637019942402803903,,0.0,0.0,0.0,0.0,-1.0,0.0,0.0,0.0,0.0,0.0,0.0,0.0,0.0,-0.00698131700798,0.00349065850399,-0.00872664625997,0.0,0.0,0.0,0.0,0.0,0.0,0.0,0.0,0.0,0.064746,0.097119,-9.679527,0.0,0.0,0.0,0.0,0.0,0.0,0.0,0.0,0.0
1637019942423740148,66521,1637019942422828918,,0.0,0.0,0.0,0.0,-1.0,0.0,0.0,0.0,0.0,0.0,0.0,0.0,0.0,-0.000872664625997,0.00523598775598,-0.00349065850399,0.0,0.0,0.0,0.0,0.0,0.0,0.0,0.0,0.0,0.097119,0.161865,-9.614781,0.0,0.0,0.0,0.0,0.0,0.0,0.0,0.0,0.0
1637019942443289008,66522,1637019942442841612,,0.0,0.0,0.0,0.0,-1.0,0.0,0.0,0.0,0.0,0.0,0.0,0.0,0.0,-0.00523598775598,0.00349065850399,-0.00174532925199,0.0,0.0,0.0,0.0,0.0,0.0,0.0,0.0,0.0,0.161865,0.129492,-9.7119,0.0,0.0,0.0,0.0,0.0,0.0,0.0,0.0,0.0
1637019942462987409,66523,1637019942462773395,,0.0,0.0,0.0,0.0,-1.0,0.0,0.0,0.0,0.0,0.0,0.0,0.0,0.0,-0.00261799387799,0.00523598775598,-0.00436332312999,0.0,0.0,0.0,0.0,0.0,0.0,0.0,0.0,0.0,0.097119,0.064746,-9.614781,0.0,0.0,0.0,0.0,0.0,0.0,0.0,0.0,0.0
1637019942483251269,66524,1637019942482810377,,0.0,0.0,0.0,0.0,-1.0,0.0,0.0,0.0,0.0,0.0,0.0,0.0,0.0,-0.00436332312999,0.012217304764,-0.00261799387799,0.0,0.0,0.0,0.0,0.0,0.0,0.0,0.0,0.0,0.097119,0.129492,-9.647154,0.0,0.0,0.0,0.0,0.0,0.0,0.0,0.0,0.0
1637019942503161891,66525,1637019942502884709,,0.0,0.0,0.0,0.0,-1.0,0.0,0.0,0.0,0.0,0.0,0.0,0.0,0.0,0.00174532925199,0.0191986217719,-0.00959931088597,0.0,0.0,0.0,0.0,0.0,0.0,0.0,0.0,0.0,0.129492,0.129492,-9.744273,0.0,0.0,0.0,0.0,0.0,0.0,0.0,0.0,0.0
1637019942523259361,66526,1637019942522851684,,0.0,0.0,0.0,0.0,-1.0,0.0,0.0,0.0,0.0,0.0,0.0,0.0,0.0,-0.00872664625997,0.00959931088597,-0.00523598775598,0.0,0.0,0.0,0.0,0.0,0.0,0.0,0.0,0.0,0.194238,0.161865,-9.614781,0.0,0.0,0.0,0.0,0.0,0.0,0.0,0.0,0.0
1637019942543474231,66527,1637019942542886426,,0.0,0.0,0.0,0.0,-1.0,0.0,0.0,0.0,0.0,0.0,0.0,0.0,0.0,0.000872664625997,0.00436332312999,-0.01308996939,0.0,0.0,0.0,0.0,0.0,0.0,0.0,0.0,0.0,0.129492,0.097119,-9.647154,0.0,0.0,0.0,0.0,0.0,0.0,0.0,0.0,0.0
1637019942562958611,66528,1637019942562802870,,0.0,0.0,0.0,0.0,-1.0,0.0,0.0,0.0,0.0,0.0,0.0,0.0,0.0,-0.00959931088597,0.0165806278939,-0.00436332312999,0.0,0.0,0.0,0.0,0.0,0.0,0.0,0.0,0.0,0.097119,0.161865,-9.582408,0.0,0.0,0.0,0.0,0.0,0.0,0.0,0.0,0.0
1637019942583060633,66529,1637019942582832374,,0.0,0.0,0.0,0.0,-1.0,0.0,0.0,0.0,0.0,0.0,0.0,0.0,0.0,0.0,0.010471975512,-0.010471975512,0.0,0.0,0.0,0.0,0.0,0.0,0.0,0.0,0.0,0.129492,0.129492,-9.614781,0.0,0.0,0.0,0.0,0.0,0.0,0.0,0.0,0.0
1637019942603057111,66530,1637019942602836084,,0.0,0.0,0.0,0.0,-1.0,0.0,0.0,0.0,0.0,0.0,0.0,0.0,0.0,-0.00261799387799,0.00698131700798,-0.00523598775598,0.0,0.0,0.0,0.0,0.0,0.0,0.0,0.0,0.0,0.129492,0.129492,-9.679527,0.0,0.0,0.0,0.0,0.0,0.0,0.0,0.0,0.0
1637019942623186472,66531,1637019942622797472,,0.0,0.0,0.0,0.0,-1.0,0.0,0.0,0.0,0.0,0.0,0.0,0.0,0.0,0.00523598775598,-0.00349065850399,0.0,0.0,0.0,0.0,0.0,0.0,0.0,0.0,0.0,0.0,0.0,-0.097119,-9.614781,0.0,0.0,0.0,0.0,0.0,0.0,0.0,0.0,0.0
1637019942643007288,66532,1637019942642807795,,0.0,0.0,0.0,0.0,-1.0,0.0,0.0,0.0,0.0,0.0,0.0,0.0,0.0,-0.00436332312999,0.000872664625997,0.0,0.0,0.0,0.0,0.0,0.0,0.0,0.0,0.0,0.0,0.129492,0.032373,-9.7119,0.0,0.0,0.0,0.0,0.0,0.0,0.0,0.0,0.0
1637019942663026291,66533,1637019942662824060,,0.0,0.0,0.0,0.0,-1.0,0.0,0.0,0.0,0.0,0.0,0.0,0.0,0.0,-0.00261799387799,0.0,0.00436332312999,0.0,0.0,0.0,0.0,0.0,0.0,0.0,0.0,0.0,0.097119,0.097119,-9.679527,0.0,0.0,0.0,0.0,0.0,0.0,0.0,0.0,0.0
1637019942683071966,66534,1637019942682854444,,0.0,0.0,0.0,0.0,-1.0,0.0,0.0,0.0,0.0,0.0,0.0,0.0,0.0,0.00261799387799,-0.00349065850399,-0.00349065850399,0.0,0.0,0.0,0.0,0.0,0.0,0.0,0.0,0.0,0.097119,0.064746,-9.647154,0.0,0.0,0.0,0.0,0.0,0.0,0.0,0.0,0.0
1637019942703266369,66535,1637019942702850602,,0.0,0.0,0.0,0.0,-1.0,0.0,0.0,0.0,0.0,0.0,0.0,0.0,0.0,0.0,0.00872664625997,-0.012217304764,0.0,0.0,0.0,0.0,0.0,0.0,0.0,0.0,0.0,0.097119,0.097119,-9.582408,0.0,0.0,0.0,0.0,0.0,0.0,0.0,0.0,0.0
1637019942723251691,66536,1637019942722810499,,0.0,0.0,0.0,0.0,-1.0,0.0,0.0,0.0,0.0,0.0,0.0,0.0,0.0,0.00785398163397,-0.00436332312999,-0.00349065850399,0.0,0.0,0.0,0.0,0.0,0.0,0.0,0.0,0.0,0.129492,0.194238,-9.647154,0.0,0.0,0.0,0.0,0.0,0.0,0.0,0.0,0.0
1637019942743438020,66537,1637019942742854461,,0.0,0.0,0.0,0.0,-1.0,0.0,0.0,0.0,0.0,0.0,0.0,0.0,0.0,0.00174532925199,-0.000872664625997,-0.00349065850399,0.0,0.0,0.0,0.0,0.0,0.0,0.0,0.0,0.0,0.129492,0.194238,-9.679527,0.0,0.0,0.0,0.0,0.0,0.0,0.0,0.0,0.0
1637019942763086421,66538,1637019942762844220,,0.0,0.0,0.0,0.0,-1.0,0.0,0.0,0.0,0.0,0.0,0.0,0.0,0.0,0.00785398163397,-0.00174532925199,0.0,0.0,0.0,0.0,0.0,0.0,0.0,0.0,0.0,0.0,0.0,0.129492,-9.582408,0.0,0.0,0.0,0.0,0.0,0.0,0.0,0.0,0.0
1637019942783199136,66539,1637019942782819177,,0.0,0.0,0.0,0.0,-1.0,0.0,0.0,0.0,0.0,0.0,0.0,0.0,0.0,0.00698131700798,-0.00261799387799,-0.00436332312999,0.0,0.0,0.0,0.0,0.0,0.0,0.0,0.0,0.0,0.097119,0.129492,-9.7119,0.0,0.0,0.0,0.0,0.0,0.0,0.0,0.0,0.0
1637019942803301819,66540,1637019942802821244,,0.0,0.0,0.0,0.0,-1.0,0.0,0.0,0.0,0.0,0.0,0.0,0.0,0.0,0.000872664625997,0.00610865238198,-0.00610865238198,0.0,0.0,0.0,0.0,0.0,0.0,0.0,0.0,0.0,0.129492,0.161865,-9.679527,0.0,0.0,0.0,0.0,0.0,0.0,0.0,0.0,0.0
1637019942824484915,66541,1637019942822793309,,0.0,0.0,0.0,0.0,-1.0,0.0,0.0,0.0,0.0,0.0,0.0,0.0,0.0,0.00349065850399,0.00610865238198,-0.000872664625997,0.0,0.0,0.0,0.0,0.0,0.0,0.0,0.0,0.0,0.129492,0.161865,-9.647154,0.0,0.0,0.0,0.0,0.0,0.0,0.0,0.0,0.0
1637019942843126126,66542,1637019942842810967,,0.0,0.0,0.0,0.0,-1.0,0.0,0.0,0.0,0.0,0.0,0.0,0.0,0.0,-0.00698131700798,0.0,-0.00349065850399,0.0,0.0,0.0,0.0,0.0,0.0,0.0,0.0,0.0,0.129492,0.129492,-9.647154,0.0,0.0,0.0,0.0,0.0,0.0,0.0,0.0,0.0
1637019942863042053,66543,1637019942862897683,,0.0,0.0,0.0,0.0,-1.0,0.0,0.0,0.0,0.0,0.0,0.0,0.0,0.0,-0.00174532925199,0.00785398163397,-0.010471975512,0.0,0.0,0.0,0.0,0.0,0.0,0.0,0.0,0.0,0.064746,0.129492,-9.550035,0.0,0.0,0.0,0.0,0.0,0.0,0.0,0.0,0.0
1637019942882955157,66544,1637019942882777973,,0.0,0.0,0.0,0.0,-1.0,0.0,0.0,0.0,0.0,0.0,0.0,0.0,0.0,0.00174532925199,0.00610865238198,-0.012217304764,0.0,0.0,0.0,0.0,0.0,0.0,0.0,0.0,0.0,0.129492,0.194238,-9.647154,0.0,0.0,0.0,0.0,0.0,0.0,0.0,0.0,0.0
1637019942903078444,66545,1637019942902823090,,0.0,0.0,0.0,0.0,-1.0,0.0,0.0,0.0,0.0,0.0,0.0,0.0,0.0,0.00436332312999,0.00436332312999,-0.01308996939,0.0,0.0,0.0,0.0,0.0,0.0,0.0,0.0,0.0,0.129492,0.32373,-9.647154,0.0,0.0,0.0,0.0,0.0,0.0,0.0,0.0,0.0
1637019942923387323,66546,1637019942922849223,,0.0,0.0,0.0,0.0,-1.0,0.0,0.0,0.0,0.0,0.0,0.0,0.0,0.0,0.000872664625997,0.00872664625997,-0.00610865238198,0.0,0.0,0.0,0.0,0.0,0.0,0.0,0.0,0.0,0.097119,0.0,-9.614781,0.0,0.0,0.0,0.0,0.0,0.0,0.0,0.0,0.0
1637019942943013566,66547,1637019942942832231,,0.0,0.0,0.0,0.0,-1.0,0.0,0.0,0.0,0.0,0.0,0.0,0.0,0.0,0.00610865238198,0.00436332312999,-0.00261799387799,0.0,0.0,0.0,0.0,0.0,0.0,0.0,0.0,0.0,0.064746,0.161865,-9.647154,0.0,0.0,0.0,0.0,0.0,0.0,0.0,0.0,0.0
1637019942962860537,66548,1637019942962679226,,0.0,0.0,0.0,0.0,-1.0,0.0,0.0,0.0,0.0,0.0,0.0,0.0,0.0,0.00436332312999,0.00523598775598,-0.00785398163397,0.0,0.0,0.0,0.0,0.0,0.0,0.0,0.0,0.0,0.0,0.194238,-9.550035,0.0,0.0,0.0,0.0,0.0,0.0,0.0,0.0,0.0
1637019942982974723,66549,1637019942982716283,,0.0,0.0,0.0,0.0,-1.0,0.0,0.0,0.0,0.0,0.0,0.0,0.0,0.0,0.00436332312999,0.0,-0.00872664625997,0.0,0.0,0.0,0.0,0.0,0.0,0.0,0.0,0.0,0.097119,0.161865,-9.647154,0.0,0.0,0.0,0.0,0.0,0.0,0.0,0.0,0.0
1637019943002884055,66550,1637019943002708226,,0.0,0.0,0.0,0.0,-1.0,0.0,0.0,0.0,0.0,0.0,0.0,0.0,0.0,-0.00174532925199,0.010471975512,-0.00349065850399,0.0,0.0,0.0,0.0,0.0,0.0,0.0,0.0,0.0,0.161865,0.129492,-9.614781,0.0,0.0,0.0,0.0,0.0,0.0,0.0,0.0,0.0
1637019943023382508,66551,1637019943022810284,,0.0,0.0,0.0,0.0,-1.0,0.0,0.0,0.0,0.0,0.0,0.0,0.0,0.0,0.00174532925199,0.000872664625997,-0.011344640138,0.0,0.0,0.0,0.0,0.0,0.0,0.0,0.0,0.0,0.129492,0.097119,-9.582408,0.0,0.0,0.0,0.0,0.0,0.0,0.0,0.0,0.0
1637019943042820592,66552,1637019943042724093,,0.0,0.0,0.0,0.0,-1.0,0.0,0.0,0.0,0.0,0.0,0.0,0.0,0.0,0.00610865238198,0.00436332312999,-0.00523598775598,0.0,0.0,0.0,0.0,0.0,0.0,0.0,0.0,0.0,0.161865,-0.032373,-9.582408,0.0,0.0,0.0,0.0,0.0,0.0,0.0,0.0,0.0
1637019943062918476,66553,1637019943062702583,,0.0,0.0,0.0,0.0,-1.0,0.0,0.0,0.0,0.0,0.0,0.0,0.0,0.0,-0.00436332312999,-0.00436332312999,0.0,0.0,0.0,0.0,0.0,0.0,0.0,0.0,0.0,0.0,0.161865,0.097119,-9.647154,0.0,0.0,0.0,0.0,0.0,0.0,0.0,0.0,0.0
1637019943082922461,66554,1637019943082708759,,0.0,0.0,0.0,0.0,-1.0,0.0,0.0,0.0,0.0,0.0,0.0,0.0,0.0,-0.00174532925199,0.000872664625997,0.000872664625997,0.0,0.0,0.0,0.0,0.0,0.0,0.0,0.0,0.0,0.129492,0.194238,-9.647154,0.0,0.0,0.0,0.0,0.0,0.0,0.0,0.0,0.0
1637019943103068786,66555,1637019943102741930,,0.0,0.0,0.0,0.0,-1.0,0.0,0.0,0.0,0.0,0.0,0.0,0.0,0.0,0.00261799387799,0.00174532925199,0.00436332312999,0.0,0.0,0.0,0.0,0.0,0.0,0.0,0.0,0.0,0.064746,0.129492,-9.647154,0.0,0.0,0.0,0.0,0.0,0.0,0.0,0.0,0.0
1637019943123097249,66556,1637019943122741778,,0.0,0.0,0.0,0.0,-1.0,0.0,0.0,0.0,0.0,0.0,0.0,0.0,0.0,-0.00349065850399,0.00698131700798,-0.011344640138,0.0,0.0,0.0,0.0,0.0,0.0,0.0,0.0,0.0,0.194238,0.194238,-9.679527,0.0,0.0,0.0,0.0,0.0,0.0,0.0,0.0,0.0
1637019943142905903,66557,1637019943142723949,,0.0,0.0,0.0,0.0,-1.0,0.0,0.0,0.0,0.0,0.0,0.0,0.0,0.0,-0.00698131700798,0.01308996939,-0.010471975512,0.0,0.0,0.0,0.0,0.0,0.0,0.0,0.0,0.0,0.129492,0.097119,-9.679527,0.0,0.0,0.0,0.0,0.0,0.0,0.0,0.0,0.0
1637019943162862116,66558,1637019943162696947,,0.0,0.0,0.0,0.0,-1.0,0.0,0.0,0.0,0.0,0.0,0.0,0.0,0.0,0.00698131700798,0.00349065850399,-0.00785398163397,0.0,0.0,0.0,0.0,0.0,0.0,0.0,0.0,0.0,0.129492,0.129492,-9.582408,0.0,0.0,0.0,0.0,0.0,0.0,0.0,0.0,0.0
1637019943182968737,66559,1637019943182787896,,0.0,0.0,0.0,0.0,-1.0,0.0,0.0,0.0,0.0,0.0,0.0,0.0,0.0,-0.00349065850399,0.00698131700798,-0.00436332312999,0.0,0.0,0.0,0.0,0.0,0.0,0.0,0.0,0.0,0.097119,0.129492,-9.647154,0.0,0.0,0.0,0.0,0.0,0.0,0.0,0.0,0.0
1637019943203051417,66560,1637019943202756207,,0.0,0.0,0.0,0.0,-1.0,0.0,0.0,0.0,0.0,0.0,0.0,0.0,0.0,0.00174532925199,-0.00349065850399,-0.00959931088597,0.0,0.0,0.0,0.0,0.0,0.0,0.0,0.0,0.0,0.097119,0.258984,-9.517662,0.0,0.0,0.0,0.0,0.0,0.0,0.0,0.0,0.0
1637019943223170374,66561,1637019943222739433,,0.0,0.0,0.0,0.0,-1.0,0.0,0.0,0.0,0.0,0.0,0.0,0.0,0.0,-0.00261799387799,0.00349065850399,-0.010471975512,0.0,0.0,0.0,0.0,0.0,0.0,0.0,0.0,0.0,0.129492,0.097119,-9.550035,0.0,0.0,0.0,0.0,0.0,0.0,0.0,0.0,0.0
1637019943243624101,66562,1637019943242803388,,0.0,0.0,0.0,0.0,-1.0,0.0,0.0,0.0,0.0,0.0,0.0,0.0,0.0,0.000872664625997,0.010471975512,-0.00523598775598,0.0,0.0,0.0,0.0,0.0,0.0,0.0,0.0,0.0,0.194238,0.032373,-9.614781,0.0,0.0,0.0,0.0,0.0,0.0,0.0,0.0,0.0
1637019943263060208,66563,1637019943262774837,,0.0,0.0,0.0,0.0,-1.0,0.0,0.0,0.0,0.0,0.0,0.0,0.0,0.0,0.00610865238198,-0.00610865238198,-0.00698131700798,0.0,0.0,0.0,0.0,0.0,0.0,0.0,0.0,0.0,0.129492,0.226611,-9.614781,0.0,0.0,0.0,0.0,0.0,0.0,0.0,0.0,0.0
1637019943282993341,66564,1637019943282747897,,0.0,0.0,0.0,0.0,-1.0,0.0,0.0,0.0,0.0,0.0,0.0,0.0,0.0,-0.00349065850399,0.00523598775598,-0.0183259571459,0.0,0.0,0.0,0.0,0.0,0.0,0.0,0.0,0.0,0.032373,0.097119,-9.7119,0.0,0.0,0.0,0.0,0.0,0.0,0.0,0.0,0.0
1637019943303132769,66565,1637019943302772059,,0.0,0.0,0.0,0.0,-1.0,0.0,0.0,0.0,0.0,0.0,0.0,0.0,0.0,-0.014835298642,0.0,-0.00698131700798,0.0,0.0,0.0,0.0,0.0,0.0,0.0,0.0,0.0,0.064746,0.129492,-9.614781,0.0,0.0,0.0,0.0,0.0,0.0,0.0,0.0,0.0
1637019943322990809,66566,1637019943322796717,,0.0,0.0,0.0,0.0,-1.0,0.0,0.0,0.0,0.0,0.0,0.0,0.0,0.0,-0.00785398163397,0.00610865238198,-0.00436332312999,0.0,0.0,0.0,0.0,0.0,0.0,0.0,0.0,0.0,0.097119,0.097119,-9.582408,0.0,0.0,0.0,0.0,0.0,0.0,0.0,0.0,0.0
1637019943343374118,66567,1637019943342790392,,0.0,0.0,0.0,0.0,-1.0,0.0,0.0,0.0,0.0,0.0,0.0,0.0,0.0,-0.000872664625997,0.0,-0.00872664625997,0.0,0.0,0.0,0.0,0.0,0.0,0.0,0.0,0.0,0.097119,0.097119,-9.679527,0.0,0.0,0.0,0.0,0.0,0.0,0.0,0.0,0.0
1637019943363103605,66568,1637019943362859751,,0.0,0.0,0.0,0.0,-1.0,0.0,0.0,0.0,0.0,0.0,0.0,0.0,0.0,0.00261799387799,0.000872664625997,0.000872664625997,0.0,0.0,0.0,0.0,0.0,0.0,0.0,0.0,0.0,0.064746,0.097119,-9.614781,0.0,0.0,0.0,0.0,0.0,0.0,0.0,0.0,0.0
1637019943383183771,66569,1637019943382866714,,0.0,0.0,0.0,0.0,-1.0,0.0,0.0,0.0,0.0,0.0,0.0,0.0,0.0,0.00261799387799,0.00436332312999,-0.0165806278939,0.0,0.0,0.0,0.0,0.0,0.0,0.0,0.0,0.0,0.064746,0.129492,-9.647154,0.0,0.0,0.0,0.0,0.0,0.0,0.0,0.0,0.0
1637019943403351307,66570,1637019943402802755,,0.0,0.0,0.0,0.0,-1.0,0.0,0.0,0.0,0.0,0.0,0.0,0.0,0.0,-0.010471975512,0.01308996939,-0.00261799387799,0.0,0.0,0.0,0.0,0.0,0.0,0.0,0.0,0.0,0.097119,0.161865,-9.7119,0.0,0.0,0.0,0.0,0.0,0.0,0.0,0.0,0.0
1637019943423299694,66571,1637019943422831672,,0.0,0.0,0.0,0.0,-1.0,0.0,0.0,0.0,0.0,0.0,0.0,0.0,0.0,0.00349065850399,-0.00261799387799,-0.00785398163397,0.0,0.0,0.0,0.0,0.0,0.0,0.0,0.0,0.0,0.129492,0.291357,-9.582408,0.0,0.0,0.0,0.0,0.0,0.0,0.0,0.0,0.0
1637019943443198120,66572,1637019943442783075,,0.0,0.0,0.0,0.0,-1.0,0.0,0.0,0.0,0.0,0.0,0.0,0.0,0.0,-0.00436332312999,0.00349065850399,0.00349065850399,0.0,0.0,0.0,0.0,0.0,0.0,0.0,0.0,0.0,0.129492,0.097119,-9.614781,0.0,0.0,0.0,0.0,0.0,0.0,0.0,0.0,0.0
1637019943463048967,66573,1637019943462795635,,0.0,0.0,0.0,0.0,-1.0,0.0,0.0,0.0,0.0,0.0,0.0,0.0,0.0,-0.00785398163397,0.00436332312999,0.00174532925199,0.0,0.0,0.0,0.0,0.0,0.0,0.0,0.0,0.0,0.0,0.129492,-9.679527,0.0,0.0,0.0,0.0,0.0,0.0,0.0,0.0,0.0
1637019943482989872,66574,1637019943482779962,,0.0,0.0,0.0,0.0,-1.0,0.0,0.0,0.0,0.0,0.0,0.0,0.0,0.0,0.00523598775598,-0.00261799387799,-0.00959931088597,0.0,0.0,0.0,0.0,0.0,0.0,0.0,0.0,0.0,0.097119,0.161865,-9.647154,0.0,0.0,0.0,0.0,0.0,0.0,0.0,0.0,0.0
1637019943503042283,66575,1637019943502764960,,0.0,0.0,0.0,0.0,-1.0,0.0,0.0,0.0,0.0,0.0,0.0,0.0,0.0,-0.00436332312999,0.00261799387799,0.00349065850399,0.0,0.0,0.0,0.0,0.0,0.0,0.0,0.0,0.0,0.097119,0.161865,-9.647154,0.0,0.0,0.0,0.0,0.0,0.0,0.0,0.0,0.0
1637019943523220038,66576,1637019943522811588,,0.0,0.0,0.0,0.0,-1.0,0.0,0.0,0.0,0.0,0.0,0.0,0.0,0.0,0.0,0.00698131700798,-0.000872664625997,0.0,0.0,0.0,0.0,0.0,0.0,0.0,0.0,0.0,0.097119,0.064746,-9.550035,0.0,0.0,0.0,0.0,0.0,0.0,0.0,0.0,0.0
1637019943543111623,66577,1637019943542822035,,0.0,0.0,0.0,0.0,-1.0,0.0,0.0,0.0,0.0,0.0,0.0,0.0,0.0,-0.00523598775598,0.00261799387799,-0.00174532925199,0.0,0.0,0.0,0.0,0.0,0.0,0.0,0.0,0.0,0.064746,0.194238,-9.582408,0.0,0.0,0.0,0.0,0.0,0.0,0.0,0.0,0.0
1637019943563040981,66578,1637019943562851969,,0.0,0.0,0.0,0.0,-1.0,0.0,0.0,0.0,0.0,0.0,0.0,0.0,0.0,0.0,0.00785398163397,-0.0165806278939,0.0,0.0,0.0,0.0,0.0,0.0,0.0,0.0,0.0,0.161865,0.161865,-9.582408,0.0,0.0,0.0,0.0,0.0,0.0,0.0,0.0,0.0
1637019943583089915,66579,1637019943582786018,,0.0,0.0,0.0,0.0,-1.0,0.0,0.0,0.0,0.0,0.0,0.0,0.0,0.0,-0.000872664625997,0.00436332312999,-0.00436332312999,0.0,0.0,0.0,0.0,0.0,0.0,0.0,0.0,0.0,0.064746,0.097119,-9.647154,0.0,0.0,0.0,0.0,0.0,0.0,0.0,0.0,0.0
1637019943603136884,66580,1637019943602754921,,0.0,0.0,0.0,0.0,-1.0,0.0,0.0,0.0,0.0,0.0,0.0,0.0,0.0,0.0,0.011344640138,-0.00174532925199,0.0,0.0,0.0,0.0,0.0,0.0,0.0,0.0,0.0,-0.161865,0.226611,-9.582408,0.0,0.0,0.0,0.0,0.0,0.0,0.0,0.0,0.0
1637019943623412321,66581,1637019943622963110,,0.0,0.0,0.0,0.0,-1.0,0.0,0.0,0.0,0.0,0.0,0.0,0.0,0.0,-0.00436332312999,0.013962634016,-0.00349065850399,0.0,0.0,0.0,0.0,0.0,0.0,0.0,0.0,0.0,0.129492,0.129492,-9.873765,0.0,0.0,0.0,0.0,0.0,0.0,0.0,0.0,0.0
1637019943643586978,66582,1637019943642804159,,0.0,0.0,0.0,0.0,-1.0,0.0,0.0,0.0,0.0,0.0,0.0,0.0,0.0,0.00261799387799,0.00261799387799,-0.00436332312999,0.0,0.0,0.0,0.0,0.0,0.0,0.0,0.0,0.0,0.161865,0.226611,-9.679527,0.0,0.0,0.0,0.0,0.0,0.0,0.0,0.0,0.0
1637019943663000973,66583,1637019943662850768,,0.0,0.0,0.0,0.0,-1.0,0.0,0.0,0.0,0.0,0.0,0.0,0.0,0.0,-0.00261799387799,-0.000872664625997,-0.014835298642,0.0,0.0,0.0,0.0,0.0,0.0,0.0,0.0,0.0,0.097119,0.129492,-9.614781,0.0,0.0,0.0,0.0,0.0,0.0,0.0,0.0,0.0
1637019943683190393,66584,1637019943683060626,,0.0,0.0,0.0,0.0,-1.0,0.0,0.0,0.0,0.0,0.0,0.0,0.0,0.0,0.00523598775598,-0.00261799387799,0.000872664625997,0.0,0.0,0.0,0.0,0.0,0.0,0.0,0.0,0.0,0.129492,0.064746,-9.679527,0.0,0.0,0.0,0.0,0.0,0.0,0.0,0.0,0.0
1637019943703018695,66585,1637019943702727524,,0.0,0.0,0.0,0.0,-1.0,0.0,0.0,0.0,0.0,0.0,0.0,0.0,0.0,-0.00349065850399,-0.00261799387799,-0.00261799387799,0.0,0.0,0.0,0.0,0.0,0.0,0.0,0.0,0.0,0.129492,0.129492,-9.517662,0.0,0.0,0.0,0.0,0.0,0.0,0.0,0.0,0.0
1637019943723138061,66586,1637019943722751596,,0.0,0.0,0.0,0.0,-1.0,0.0,0.0,0.0,0.0,0.0,0.0,0.0,0.0,0.000872664625997,-0.010471975512,-0.00436332312999,0.0,0.0,0.0,0.0,0.0,0.0,0.0,0.0,0.0,0.097119,0.129492,-9.614781,0.0,0.0,0.0,0.0,0.0,0.0,0.0,0.0,0.0
1637019943743067734,66587,1637019943742743602,,0.0,0.0,0.0,0.0,-1.0,0.0,0.0,0.0,0.0,0.0,0.0,0.0,0.0,-0.00261799387799,0.00174532925199,0.000872664625997,0.0,0.0,0.0,0.0,0.0,0.0,0.0,0.0,0.0,0.064746,0.161865,-9.614781,0.0,0.0,0.0,0.0,0.0,0.0,0.0,0.0,0.0
1637019943763079336,66588,1637019943762822197,,0.0,0.0,0.0,0.0,-1.0,0.0,0.0,0.0,0.0,0.0,0.0,0.0,0.0,-0.000872664625997,0.00785398163397,0.000872664625997,0.0,0.0,0.0,0.0,0.0,0.0,0.0,0.0,0.0,0.032373,0.064746,-9.614781,0.0,0.0,0.0,0.0,0.0,0.0,0.0,0.0,0.0
1637019943783090849,66589,1637019943782783034,,0.0,0.0,0.0,0.0,-1.0,0.0,0.0,0.0,0.0,0.0,0.0,0.0,0.0,-0.00261799387799,0.00610865238198,-0.00436332312999,0.0,0.0,0.0,0.0,0.0,0.0,0.0,0.0,0.0,0.097119,0.129492,-9.582408,0.0,0.0,0.0,0.0,0.0,0.0,0.0,0.0,0.0
1637019943802859938,66590,1637019943802721072,,0.0,0.0,0.0,0.0,-1.0,0.0,0.0,0.0,0.0,0.0,0.0,0.0,0.0,-0.00349065850399,0.0,-0.00872664625997,0.0,0.0,0.0,0.0,0.0,0.0,0.0,0.0,0.0,0.097119,0.161865,-9.420543,0.0,0.0,0.0,0.0,0.0,0.0,0.0,0.0,0.0
1637019943823066454,66591,1637019943822781063,,0.0,0.0,0.0,0.0,-1.0,0.0,0.0,0.0,0.0,0.0,0.0,0.0,0.0,0.00174532925199,0.000872664625997,-0.00872664625997,0.0,0.0,0.0,0.0,0.0,0.0,0.0,0.0,0.0,0.064746,0.129492,-9.582408,0.0,0.0,0.0,0.0,0.0,0.0,0.0,0.0,0.0
1637019943843385843,66592,1637019943842781197,,0.0,0.0,0.0,0.0,-1.0,0.0,0.0,0.0,0.0,0.0,0.0,0.0,0.0,0.00436332312999,0.00349065850399,0.00174532925199,0.0,0.0,0.0,0.0,0.0,0.0,0.0,0.0,0.0,0.129492,0.161865,-9.679527,0.0,0.0,0.0,0.0,0.0,0.0,0.0,0.0,0.0
1637019943863070431,66593,1637019943862817352,,0.0,0.0,0.0,0.0,-1.0,0.0,0.0,0.0,0.0,0.0,0.0,0.0,0.0,-0.00436332312999,0.00523598775598,-0.00174532925199,0.0,0.0,0.0,0.0,0.0,0.0,0.0,0.0,0.0,0.097119,0.064746,-9.582408,0.0,0.0,0.0,0.0,0.0,0.0,0.0,0.0,0.0
1637019943883099973,66594,1637019943882810649,,0.0,0.0,0.0,0.0,-1.0,0.0,0.0,0.0,0.0,0.0,0.0,0.0,0.0,-0.00261799387799,0.00785398163397,-0.00436332312999,0.0,0.0,0.0,0.0,0.0,0.0,0.0,0.0,0.0,0.129492,0.388476,-9.582408,0.0,0.0,0.0,0.0,0.0,0.0,0.0,0.0,0.0
1637019943903227735,66595,1637019943902726891,,0.0,0.0,0.0,0.0,-1.0,0.0,0.0,0.0,0.0,0.0,0.0,0.0,0.0,-0.00610865238198,0.00436332312999,0.0,0.0,0.0,0.0,0.0,0.0,0.0,0.0,0.0,0.0,0.097119,0.097119,-9.647154,0.0,0.0,0.0,0.0,0.0,0.0,0.0,0.0,0.0
1637019943923484575,66596,1637019943922793044,,0.0,0.0,0.0,0.0,-1.0,0.0,0.0,0.0,0.0,0.0,0.0,0.0,0.0,-0.00872664625997,0.00698131700798,-0.00349065850399,0.0,0.0,0.0,0.0,0.0,0.0,0.0,0.0,0.0,0.129492,0.0,-9.647154,0.0,0.0,0.0,0.0,0.0,0.0,0.0,0.0,0.0
1637019943943041508,66597,1637019943942745537,,0.0,0.0,0.0,0.0,-1.0,0.0,0.0,0.0,0.0,0.0,0.0,0.0,0.0,0.000872664625997,0.0,-0.000872664625997,0.0,0.0,0.0,0.0,0.0,0.0,0.0,0.0,0.0,0.097119,0.129492,-9.647154,0.0,0.0,0.0,0.0,0.0,0.0,0.0,0.0,0.0
1637019943963138599,66598,1637019943962795262,,0.0,0.0,0.0,0.0,-1.0,0.0,0.0,0.0,0.0,0.0,0.0,0.0,0.0,-0.00261799387799,0.014835298642,-0.0157079632679,0.0,0.0,0.0,0.0,0.0,0.0,0.0,0.0,0.0,0.064746,0.097119,-9.647154,0.0,0.0,0.0,0.0,0.0,0.0,0.0,0.0,0.0
1637019943982981474,66599,1637019943982807433,,0.0,0.0,0.0,0.0,-1.0,0.0,0.0,0.0,0.0,0.0,0.0,0.0,0.0,-0.00349065850399,0.012217304764,-0.00872664625997,0.0,0.0,0.0,0.0,0.0,0.0,0.0,0.0,0.0,0.194238,0.161865,-9.647154,0.0,0.0,0.0,0.0,0.0,0.0,0.0,0.0,0.0
1637019944002927696,66600,1637019944002749701,,0.0,0.0,0.0,0.0,-1.0,0.0,0.0,0.0,0.0,0.0,0.0,0.0,0.0,-0.00261799387799,0.01308996939,-0.00174532925199,0.0,0.0,0.0,0.0,0.0,0.0,0.0,0.0,0.0,0.129492,0.129492,-9.679527,0.0,0.0,0.0,0.0,0.0,0.0,0.0,0.0,0.0
1637019944023374178,66601,1637019944022810332,,0.0,0.0,0.0,0.0,-1.0,0.0,0.0,0.0,0.0,0.0,0.0,0.0,0.0,0.000872664625997,-0.00349065850399,-0.00436332312999,0.0,0.0,0.0,0.0,0.0,0.0,0.0,0.0,0.0,0.097119,0.161865,-9.647154,0.0,0.0,0.0,0.0,0.0,0.0,0.0,0.0,0.0
1637019944043346854,66602,1637019944042853822,,0.0,0.0,0.0,0.0,-1.0,0.0,0.0,0.0,0.0,0.0,0.0,0.0,0.0,0.00349065850399,0.00174532925199,-0.00698131700798,0.0,0.0,0.0,0.0,0.0,0.0,0.0,0.0,0.0,0.097119,0.129492,-9.647154,0.0,0.0,0.0,0.0,0.0,0.0,0.0,0.0,0.0
1637019944063047907,66603,1637019944062874332,,0.0,0.0,0.0,0.0,-1.0,0.0,0.0,0.0,0.0,0.0,0.0,0.0,0.0,-0.00698131700798,0.00785398163397,-0.00523598775598,0.0,0.0,0.0,0.0,0.0,0.0,0.0,0.0,0.0,0.097119,0.129492,-9.647154,0.0,0.0,0.0,0.0,0.0,0.0,0.0,0.0,0.0
1637019944083151692,66604,1637019944082849788,,0.0,0.0,0.0,0.0,-1.0,0.0,0.0,0.0,0.0,0.0,0.0,0.0,0.0,-0.00349065850399,0.00174532925199,-0.012217304764,0.0,0.0,0.0,0.0,0.0,0.0,0.0,0.0,0.0,0.097119,0.194238,-9.614781,0.0,0.0,0.0,0.0,0.0,0.0,0.0,0.0,0.0
1637019944102972890,66605,1637019944102767386,,0.0,0.0,0.0,0.0,-1.0,0.0,0.0,0.0,0.0,0.0,0.0,0.0,0.0,-0.010471975512,0.00610865238198,-0.00610865238198,0.0,0.0,0.0,0.0,0.0,0.0,0.0,0.0,0.0,0.161865,0.161865,-9.614781,0.0,0.0,0.0,0.0,0.0,0.0,0.0,0.0,0.0
1637019944123541659,66606,1637019944122753286,,0.0,0.0,0.0,0.0,-1.0,0.0,0.0,0.0,0.0,0.0,0.0,0.0,0.0,0.0,0.00261799387799,0.00261799387799,0.0,0.0,0.0,0.0,0.0,0.0,0.0,0.0,0.0,-0.097119,0.226611,-9.614781,0.0,0.0,0.0,0.0,0.0,0.0,0.0,0.0,0.0
1637019944143069380,66607,1637019944142770269,,0.0,0.0,0.0,0.0,-1.0,0.0,0.0,0.0,0.0,0.0,0.0,0.0,0.0,0.00174532925199,0.00436332312999,0.00174532925199,0.0,0.0,0.0,0.0,0.0,0.0,0.0,0.0,0.0,0.129492,0.032373,-9.679527,0.0,0.0,0.0,0.0,0.0,0.0,0.0,0.0,0.0
1637019944163041626,66608,1637019944162757678,,0.0,0.0,0.0,0.0,-1.0,0.0,0.0,0.0,0.0,0.0,0.0,0.0,0.0,0.00174532925199,0.00523598775598,-0.010471975512,0.0,0.0,0.0,0.0,0.0,0.0,0.0,0.0,0.0,0.032373,0.161865,-9.452916,0.0,0.0,0.0,0.0,0.0,0.0,0.0,0.0,0.0
1637019944183056435,66609,1637019944182777114,,0.0,0.0,0.0,0.0,-1.0,0.0,0.0,0.0,0.0,0.0,0.0,0.0,0.0,-0.011344640138,0.0,-0.014835298642,0.0,0.0,0.0,0.0,0.0,0.0,0.0,0.0,0.0,0.097119,0.194238,-9.647154,0.0,0.0,0.0,0.0,0.0,0.0,0.0,0.0,0.0
1637019944203100340,66610,1637019944202730994,,0.0,0.0,0.0,0.0,-1.0,0.0,0.0,0.0,0.0,0.0,0.0,0.0,0.0,-0.00523598775598,0.00261799387799,-0.011344640138,0.0,0.0,0.0,0.0,0.0,0.0,0.0,0.0,0.0,0.226611,0.161865,-9.614781,0.0,0.0,0.0,0.0,0.0,0.0,0.0,0.0,0.0
1637019944223181565,66611,1637019944222744719,,0.0,0.0,0.0,0.0,-1.0,0.0,0.0,0.0,0.0,0.0,0.0,0.0,0.0,0.00261799387799,0.00174532925199,-0.00436332312999,0.0,0.0,0.0,0.0,0.0,0.0,0.0,0.0,0.0,0.161865,0.161865,-9.614781,0.0,0.0,0.0,0.0,0.0,0.0,0.0,0.0,0.0
1637019944243614628,66612,1637019944242731965,,0.0,0.0,0.0,0.0,-1.0,0.0,0.0,0.0,0.0,0.0,0.0,0.0,0.0,-0.00349065850399,0.00698131700798,-0.00698131700798,0.0,0.0,0.0,0.0,0.0,0.0,0.0,0.0,0.0,0.097119,0.097119,-9.614781,0.0,0.0,0.0,0.0,0.0,0.0,0.0,0.0,0.0
1637019944263075582,66613,1637019944262821372,,0.0,0.0,0.0,0.0,-1.0,0.0,0.0,0.0,0.0,0.0,0.0,0.0,0.0,-0.00872664625997,0.00610865238198,0.0,0.0,0.0,0.0,0.0,0.0,0.0,0.0,0.0,0.0,0.129492,-0.097119,-9.614781,0.0,0.0,0.0,0.0,0.0,0.0,0.0,0.0,0.0
1637019944283042365,66614,1637019944282848699,,0.0,0.0,0.0,0.0,-1.0,0.0,0.0,0.0,0.0,0.0,0.0,0.0,0.0,0.00174532925199,0.000872664625997,-0.00261799387799,0.0,0.0,0.0,0.0,0.0,0.0,0.0,0.0,0.0,0.032373,0.129492,-9.517662,0.0,0.0,0.0,0.0,0.0,0.0,0.0,0.0,0.0
1637019944303098228,66615,1637019944302742777,,0.0,0.0,0.0,0.0,-1.0,0.0,0.0,0.0,0.0,0.0,0.0,0.0,0.0,-0.00436332312999,0.010471975512,0.00349065850399,0.0,0.0,0.0,0.0,0.0,0.0,0.0,0.0,0.0,0.097119,0.161865,-9.647154,0.0,0.0,0.0,0.0,0.0,0.0,0.0,0.0,0.0
1637019944323196221,66616,1637019944322752508,,0.0,0.0,0.0,0.0,-1.0,0.0,0.0,0.0,0.0,0.0,0.0,0.0,0.0,-0.000872664625997,0.00261799387799,-0.00872664625997,0.0,0.0,0.0,0.0,0.0,0.0,0.0,0.0,0.0,0.097119,0.129492,-9.679527,0.0,0.0,0.0,0.0,0.0,0.0,0.0,0.0,0.0
1637019944342998442,66617,1637019944342820309,,0.0,0.0,0.0,0.0,-1.0,0.0,0.0,0.0,0.0,0.0,0.0,0.0,0.0,-0.00523598775598,0.0,-0.00610865238198,0.0,0.0,0.0,0.0,0.0,0.0,0.0,0.0,0.0,0.161865,0.064746,-9.679527,0.0,0.0,0.0,0.0,0.0,0.0,0.0,0.0,0.0
1637019944363021333,66618,1637019944362772577,,0.0,0.0,0.0,0.0,-1.0,0.0,0.0,0.0,0.0,0.0,0.0,0.0,0.0,-0.00174532925199,-0.00174532925199,-0.00872664625997,0.0,0.0,0.0,0.0,0.0,0.0,0.0,0.0,0.0,0.097119,0.258984,-9.582408,0.0,0.0,0.0,0.0,0.0,0.0,0.0,0.0,0.0
1637019944383314203,66619,1637019944383045497,,0.0,0.0,0.0,0.0,-1.0,0.0,0.0,0.0,0.0,0.0,0.0,0.0,0.0,-0.013962634016,0.010471975512,-0.012217304764,0.0,0.0,0.0,0.0,0.0,0.0,0.0,0.0,0.0,0.097119,0.032373,-9.679527,0.0,0.0,0.0,0.0,0.0,0.0,0.0,0.0,0.0
1637019944403428892,66620,1637019944402716357,,0.0,0.0,0.0,0.0,-1.0,0.0,0.0,0.0,0.0,0.0,0.0,0.0,0.0,0.00349065850399,0.0191986217719,-0.000872664625997,0.0,0.0,0.0,0.0,0.0,0.0,0.0,0.0,0.0,0.161865,0.161865,-9.647154,0.0,0.0,0.0,0.0,0.0,0.0,0.0,0.0,0.0
1637019944422974921,66621,1637019944422785814,,0.0,0.0,0.0,0.0,-1.0,0.0,0.0,0.0,0.0,0.0,0.0,0.0,0.0,-0.00174532925199,0.0,-0.00349065850399,0.0,0.0,0.0,0.0,0.0,0.0,0.0,0.0,0.0,-0.064746,0.0,-9.679527,0.0,0.0,0.0,0.0,0.0,0.0,0.0,0.0,0.0
1637019944443271167,66622,1637019944442806049,,0.0,0.0,0.0,0.0,-1.0,0.0,0.0,0.0,0.0,0.0,0.0,0.0,0.0,0.000872664625997,0.00698131700798,-0.00436332312999,0.0,0.0,0.0,0.0,0.0,0.0,0.0,0.0,0.0,0.161865,-0.032373,-9.647154,0.0,0.0,0.0,0.0,0.0,0.0,0.0,0.0,0.0
1637019944463290080,66623,1637019944462923498,,0.0,0.0,0.0,0.0,-1.0,0.0,0.0,0.0,0.0,0.0,0.0,0.0,0.0,0.00349065850399,0.0,0.00349065850399,0.0,0.0,0.0,0.0,0.0,0.0,0.0,0.0,0.0,0.291357,0.097119,-9.647154,0.0,0.0,0.0,0.0,0.0,0.0,0.0,0.0,0.0
1637019944482911454,66624,1637019944482722007,,0.0,0.0,0.0,0.0,-1.0,0.0,0.0,0.0,0.0,0.0,0.0,0.0,0.0,-0.00349065850399,0.00436332312999,-0.00174532925199,0.0,0.0,0.0,0.0,0.0,0.0,0.0,0.0,0.0,0.064746,0.161865,-9.614781,0.0,0.0,0.0,0.0,0.0,0.0,0.0,0.0,0.0
1637019944503037023,66625,1637019944502765805,,0.0,0.0,0.0,0.0,-1.0,0.0,0.0,0.0,0.0,0.0,0.0,0.0,0.0,-0.00261799387799,0.000872664625997,-0.00872664625997,0.0,0.0,0.0,0.0,0.0,0.0,0.0,0.0,0.0,0.097119,0.226611,-9.550035,0.0,0.0,0.0,0.0,0.0,0.0,0.0,0.0,0.0
1637019944523258715,66626,1637019944522817811,,0.0,0.0,0.0,0.0,-1.0,0.0,0.0,0.0,0.0,0.0,0.0,0.0,0.0,-0.00523598775598,0.00523598775598,0.00523598775598,0.0,0.0,0.0,0.0,0.0,0.0,0.0,0.0,0.0,0.129492,0.064746,-9.614781,0.0,0.0,0.0,0.0,0.0,0.0,0.0,0.0,0.0
1637019944543544161,66627,1637019944542958416,,0.0,0.0,0.0,0.0,-1.0,0.0,0.0,0.0,0.0,0.0,0.0,0.0,0.0,-0.000872664625997,0.000872664625997,-0.010471975512,0.0,0.0,0.0,0.0,0.0,0.0,0.0,0.0,0.0,0.064746,0.129492,-9.452916,0.0,0.0,0.0,0.0,0.0,0.0,0.0,0.0,0.0
1637019944562934259,66628,1637019944562770142,,0.0,0.0,0.0,0.0,-1.0,0.0,0.0,0.0,0.0,0.0,0.0,0.0,0.0,-0.01308996939,0.0,-0.00698131700798,0.0,0.0,0.0,0.0,0.0,0.0,0.0,0.0,0.0,0.064746,0.258984,-9.614781,0.0,0.0,0.0,0.0,0.0,0.0,0.0,0.0,0.0
1637019944582979063,66629,1637019944582818011,,0.0,0.0,0.0,0.0,-1.0,0.0,0.0,0.0,0.0,0.0,0.0,0.0,0.0,0.00523598775598,-0.00174532925199,-0.011344640138,0.0,0.0,0.0,0.0,0.0,0.0,0.0,0.0,0.0,0.097119,0.064746,-9.647154,0.0,0.0,0.0,0.0,0.0,0.0,0.0,0.0,0.0
1637019944603233276,66630,1637019944602868744,,0.0,0.0,0.0,0.0,-1.0,0.0,0.0,0.0,0.0,0.0,0.0,0.0,0.0,0.00610865238198,0.00610865238198,-0.00785398163397,0.0,0.0,0.0,0.0,0.0,0.0,0.0,0.0,0.0,0.097119,0.161865,-9.776646,0.0,0.0,0.0,0.0,0.0,0.0,0.0,0.0,0.0
1637019944623067001,66631,1637019944622726784,,0.0,0.0,0.0,0.0,-1.0,0.0,0.0,0.0,0.0,0.0,0.0,0.0,0.0,0.000872664625997,0.0,-0.00436332312999,0.0,0.0,0.0,0.0,0.0,0.0,0.0,0.0,0.0,0.0,0.129492,-9.485289,0.0,0.0,0.0,0.0,0.0,0.0,0.0,0.0,0.0
1637019944643346163,66632,1637019944642849836,,0.0,0.0,0.0,0.0,-1.0,0.0,0.0,0.0,0.0,0.0,0.0,0.0,0.0,-0.00261799387799,0.000872664625997,-0.010471975512,0.0,0.0,0.0,0.0,0.0,0.0,0.0,0.0,0.0,-0.032373,0.097119,-9.38817,0.0,0.0,0.0,0.0,0.0,0.0,0.0,0.0,0.0
1637019944662818160,66633,1637019944662695935,,0.0,0.0,0.0,0.0,-1.0,0.0,0.0,0.0,0.0,0.0,0.0,0.0,0.0,0.0,0.011344640138,0.000872664625997,0.0,0.0,0.0,0.0,0.0,0.0,0.0,0.0,0.0,0.064746,0.097119,-9.550035,0.0,0.0,0.0,0.0,0.0,0.0,0.0,0.0,0.0
1637019944683073152,66634,1637019944682869311,,0.0,0.0,0.0,0.0,-1.0,0.0,0.0,0.0,0.0,0.0,0.0,0.0,0.0,-0.00261799387799,0.0191986217719,-0.010471975512,0.0,0.0,0.0,0.0,0.0,0.0,0.0,0.0,0.0,0.129492,-0.161865,-9.614781,0.0,0.0,0.0,0.0,0.0,0.0,0.0,0.0,0.0
1637019944702916041,66635,1637019944702699641,,0.0,0.0,0.0,0.0,-1.0,0.0,0.0,0.0,0.0,0.0,0.0,0.0,0.0,-0.00436332312999,0.00698131700798,-0.00174532925199,0.0,0.0,0.0,0.0,0.0,0.0,0.0,0.0,0.0,0.097119,0.161865,-9.7119,0.0,0.0,0.0,0.0,0.0,0.0,0.0,0.0,0.0
1637019944723303889,66636,1637019944722798372,,0.0,0.0,0.0,0.0,-1.0,0.0,0.0,0.0,0.0,0.0,0.0,0.0,0.0,-0.00436332312999,-0.00349065850399,-0.00959931088597,0.0,0.0,0.0,0.0,0.0,0.0,0.0,0.0,0.0,0.194238,0.064746,-9.647154,0.0,0.0,0.0,0.0,0.0,0.0,0.0,0.0,0.0
1637019944743313458,66637,1637019944742720955,,0.0,0.0,0.0,0.0,-1.0,0.0,0.0,0.0,0.0,0.0,0.0,0.0,0.0,0.00610865238198,0.010471975512,-0.00872664625997,0.0,0.0,0.0,0.0,0.0,0.0,0.0,0.0,0.0,-0.064746,0.0,-9.809019,0.0,0.0,0.0,0.0,0.0,0.0,0.0,0.0,0.0
1637019944763031746,66638,1637019944762791978,,0.0,0.0,0.0,0.0,-1.0,0.0,0.0,0.0,0.0,0.0,0.0,0.0,0.0,-0.00261799387799,0.00872664625997,-0.011344640138,0.0,0.0,0.0,0.0,0.0,0.0,0.0,0.0,0.0,0.194238,0.226611,-9.647154,0.0,0.0,0.0,0.0,0.0,0.0,0.0,0.0,0.0
1637019944782966726,66639,1637019944782736060,,0.0,0.0,0.0,0.0,-1.0,0.0,0.0,0.0,0.0,0.0,0.0,0.0,0.0,-0.000872664625997,-0.00523598775598,-0.00523598775598,0.0,0.0,0.0,0.0,0.0,0.0,0.0,0.0,0.0,0.032373,0.097119,-9.7119,0.0,0.0,0.0,0.0,0.0,0.0,0.0,0.0,0.0
1637019944802998014,66640,1637019944802765347,,0.0,0.0,0.0,0.0,-1.0,0.0,0.0,0.0,0.0,0.0,0.0,0.0,0.0,-0.00610865238198,-0.00872664625997,0.00872664625997,0.0,0.0,0.0,0.0,0.0,0.0,0.0,0.0,0.0,-0.453222,-0.032373,-9.582408,0.0,0.0,0.0,0.0,0.0,0.0,0.0,0.0,0.0
1637019944823486145,66641,1637019944822793268,,0.0,0.0,0.0,0.0,-1.0,0.0,0.0,0.0,0.0,0.0,0.0,0.0,0.0,-0.00785398163397,0.00174532925199,-0.00349065850399,0.0,0.0,0.0,0.0,0.0,0.0,0.0,0.0,0.0,-0.420849,0.0,-9.485289,0.0,0.0,0.0,0.0,0.0,0.0,0.0,0.0,0.0
1637019944843076391,66642,1637019944842846806,,0.0,0.0,0.0,0.0,-1.0,0.0,0.0,0.0,0.0,0.0,0.0,0.0,0.0,-0.00261799387799,0.00959931088597,-0.0593411945678,0.0,0.0,0.0,0.0,0.0,0.0,0.0,0.0,0.0,0.0,0.453222,-9.873765,0.0,0.0,0.0,0.0,0.0,0.0,0.0,0.0,0.0
1637019944863025181,66643,1637019944862771051,,0.0,0.0,0.0,0.0,-1.0,0.0,0.0,0.0,0.0,0.0,0.0,0.0,0.0,-0.000872664625997,0.011344640138,0.0174532925199,0.0,0.0,0.0,0.0,0.0,0.0,0.0,0.0,0.0,0.032373,0.129492,-9.38817,0.0,0.0,0.0,0.0,0.0,0.0,0.0,0.0,0.0
1637019944883101275,66644,1637019944882868664,,0.0,0.0,0.0,0.0,-1.0,0.0,0.0,0.0,0.0,0.0,0.0,0.0,0.0,-0.0165806278939,-0.011344640138,-0.0671951762018,0.0,0.0,0.0,0.0,0.0,0.0,0.0,0.0,0.0,-0.485595,0.161865,-9.744273,0.0,0.0,0.0,0.0,0.0,0.0,0.0,0.0,0.0
1637019944902996659,66645,1637019944902720717,,0.0,0.0,0.0,0.0,-1.0,0.0,0.0,0.0,0.0,0.0,0.0,0.0,0.0,0.014835298642,-0.0366519142919,-0.0287979326579,0.0,0.0,0.0,0.0,0.0,0.0,0.0,0.0,0.0,-0.226611,0.097119,-10.03563,0.0,0.0,0.0,0.0,0.0,0.0,0.0,0.0,0.0
1637019944930593087,66646,1637019944930189491,,0.0,0.0,0.0,0.0,-1.0,0.0,0.0,0.0,0.0,0.0,0.0,0.0,0.0,0.0296705972839,-0.00261799387799,0.0602138591938,0.0,0.0,0.0,0.0,0.0,0.0,0.0,0.0,0.0,-0.64746,0.129492,-9.647154,0.0,0.0,0.0,0.0,0.0,0.0,0.0,0.0,0.0
1637019944942921501,66647,1637019944942712487,,0.0,0.0,0.0,0.0,-1.0,0.0,0.0,0.0,0.0,0.0,0.0,0.0,0.0,0.00523598775598,0.0558505360638,0.0287979326579,0.0,0.0,0.0,0.0,0.0,0.0,0.0,0.0,0.0,0.453222,0.679833,-9.517662,0.0,0.0,0.0,0.0,0.0,0.0,0.0,0.0,0.0
1637019944963122130,66648,1637019944962763846,,0.0,0.0,0.0,0.0,-1.0,0.0,0.0,0.0,0.0,0.0,0.0,0.0,0.0,0.01308996939,0.0226892802759,0.102101761242,0.0,0.0,0.0,0.0,0.0,0.0,0.0,0.0,0.0,0.0,0.064746,-10.100376,0.0,0.0,0.0,0.0,0.0,0.0,0.0,0.0,0.0
1637019944982786115,66649,1637019944982615093,,0.0,0.0,0.0,0.0,-1.0,0.0,0.0,0.0,0.0,0.0,0.0,0.0,0.0,0.0357792496659,0.00523598775598,0.0253072741539,0.0,0.0,0.0,0.0,0.0,0.0,0.0,0.0,0.0,0.161865,0.0,-9.7119,0.0,0.0,0.0,0.0,0.0,0.0,0.0,0.0,0.0
1637019945002834286,66650,1637019945002620814,,0.0,0.0,0.0,0.0,-1.0,0.0,0.0,0.0,0.0,0.0,0.0,0.0,0.0,-0.0157079632679,-0.0418879020479,-0.010471975512,0.0,0.0,0.0,0.0,0.0,0.0,0.0,0.0,0.0,-1.068309,-0.032373,-10.165122,0.0,0.0,0.0,0.0,0.0,0.0,0.0,0.0,0.0
1637019945023014866,66651,1637019945022865376,,0.0,0.0,0.0,0.0,-1.0,0.0,0.0,0.0,0.0,0.0,0.0,0.0,0.0,-0.012217304764,-0.00174532925199,0.00610865238198,0.0,0.0,0.0,0.0,0.0,0.0,0.0,0.0,0.0,0.258984,0.161865,-9.161559,0.0,0.0,0.0,0.0,0.0,0.0,0.0,0.0,0.0
1637019945042990041,66652,1637019945042731459,,0.0,0.0,0.0,0.0,-1.0,0.0,0.0,0.0,0.0,0.0,0.0,0.0,0.0,-0.0584685299418,0.102101761242,-0.0314159265359,0.0,0.0,0.0,0.0,0.0,0.0,0.0,0.0,0.0,0.129492,0.064746,-9.679527,0.0,0.0,0.0,0.0,0.0,0.0,0.0,0.0,0.0
1637019945062882989,66653,1637019945062656808,,0.0,0.0,0.0,0.0,-1.0,0.0,0.0,0.0,0.0,0.0,0.0,0.0,0.0,-0.0235619449019,0.0349065850399,-0.0174532925199,0.0,0.0,0.0,0.0,0.0,0.0,0.0,0.0,0.0,0.129492,0.258984,-10.197495,0.0,0.0,0.0,0.0,0.0,0.0,0.0,0.0,0.0
1637019945082869601,66654,1637019945082697820,,0.0,0.0,0.0,0.0,-1.0,0.0,0.0,0.0,0.0,0.0,0.0,0.0,0.0,0.0357792496659,0.0,0.0532325421858,0.0,0.0,0.0,0.0,0.0,0.0,0.0,0.0,0.0,0.776952,0.615087,-9.614781,0.0,0.0,0.0,0.0,0.0,0.0,0.0,0.0,0.0
1637019945102962505,66655,1637019945102704404,,0.0,0.0,0.0,0.0,-1.0,0.0,0.0,0.0,0.0,0.0,0.0,0.0,0.0,0.0261799387799,0.014835298642,0.0462512251778,0.0,0.0,0.0,0.0,0.0,0.0,0.0,0.0,0.0,-0.032373,0.356103,-9.452916,0.0,0.0,0.0,0.0,0.0,0.0,0.0,0.0,0.0
1637019945123426569,66656,1637019945122746280,,0.0,0.0,0.0,0.0,-1.0,0.0,0.0,0.0,0.0,0.0,0.0,0.0,0.0,-0.00349065850399,-0.00436332312999,-0.0165806278939,0.0,0.0,0.0,0.0,0.0,0.0,0.0,0.0,0.0,-0.615087,0.388476,-9.679527,0.0,0.0,0.0,0.0,0.0,0.0,0.0,0.0,0.0
1637019945142876230,66657,1637019945142698385,,0.0,0.0,0.0,0.0,-1.0,0.0,0.0,0.0,0.0,0.0,0.0,0.0,0.0,-0.0479965544298,0.0514872129338,-0.0558505360638,0.0,0.0,0.0,0.0,0.0,0.0,0.0,0.0,0.0,0.517968,-0.064746,-9.873765,0.0,0.0,0.0,0.0,0.0,0.0,0.0,0.0,0.0
1637019945163032052,66658,1637019945162728963,,0.0,0.0,0.0,0.0,-1.0,0.0,0.0,0.0,0.0,0.0,0.0,0.0,0.0,-0.0488692190558,0.0253072741539,-0.0445058959259,0.0,0.0,0.0,0.0,0.0,0.0,0.0,0.0,0.0,0.129492,0.226611,-9.517662,0.0,0.0,0.0,0.0,0.0,0.0,0.0,0.0,0.0
1637019945182933248,66659,1637019945182746776,,0.0,0.0,0.0,0.0,-1.0,0.0,0.0,0.0,0.0,0.0,0.0,0.0,0.0,0.0287979326579,0.0200712863979,0.0244346095279,0.0,0.0,0.0,0.0,0.0,0.0,0.0,0.0,0.0,0.064746,0.129492,-9.873765,0.0,0.0,0.0,0.0,0.0,0.0,0.0,0.0,0.0
1637019945203038747,66660,1637019945202716986,,0.0,0.0,0.0,0.0,-1.0,0.0,0.0,0.0,0.0,0.0,0.0,0.0,0.0,0.0593411945678,-0.00698131700798,0.0951204442337,0.0,0.0,0.0,0.0,0.0,0.0,0.0,0.0,0.0,0.161865,0.582714,-10.03563,0.0,0.0,0.0,0.0,0.0,0.0,0.0,0.0,0.0
1637019945223035819,66661,1637019945222673844,,0.0,0.0,0.0,0.0,-1.0,0.0,0.0,0.0,0.0,0.0,0.0,0.0,0.0,-0.00261799387799,0.00959931088597,0.0785398163397,0.0,0.0,0.0,0.0,0.0,0.0,0.0,0.0,0.0,0.097119,0.032373,-9.614781,0.0,0.0,0.0,0.0,0.0,0.0,0.0,0.0,0.0
1637019945242875387,66662,1637019945242727846,,0.0,0.0,0.0,0.0,-1.0,0.0,0.0,0.0,0.0,0.0,0.0,0.0,0.0,-0.0331612557879,0.0226892802759,-0.0698131700798,0.0,0.0,0.0,0.0,0.0,0.0,0.0,0.0,0.0,-0.161865,0.194238,-9.38817,0.0,0.0,0.0,0.0,0.0,0.0,0.0,0.0,0.0
1637019945262957717,66663,1637019945262701593,,0.0,0.0,0.0,0.0,-1.0,0.0,0.0,0.0,0.0,0.0,0.0,0.0,0.0,-0.0488692190558,-0.0218166156499,-0.0977384381117,0.0,0.0,0.0,0.0,0.0,0.0,0.0,0.0,0.0,-0.194238,-0.129492,-9.7119,0.0,0.0,0.0,0.0,0.0,0.0,0.0,0.0,0.0
1637019945282914978,66664,1637019945282732055,,0.0,0.0,0.0,0.0,-1.0,0.0,0.0,0.0,0.0,0.0,0.0,0.0,0.0,0.0479965544298,0.0226892802759,0.00959931088597,0.0,0.0,0.0,0.0,0.0,0.0,0.0,0.0,0.0,-0.129492,0.291357,-9.647154,0.0,0.0,0.0,0.0,0.0,0.0,0.0,0.0,0.0
1637019945303128011,66665,1637019945302709590,,0.0,0.0,0.0,0.0,-1.0,0.0,0.0,0.0,0.0,0.0,0.0,0.0,0.0,0.0366519142919,0.0418879020479,0.0602138591938,0.0,0.0,0.0,0.0,0.0,0.0,0.0,0.0,0.0,0.258984,0.161865,-9.614781,0.0,0.0,0.0,0.0,0.0,0.0,0.0,0.0,0.0
1637019945323075022,66666,1637019945322715904,,0.0,0.0,0.0,0.0,-1.0,0.0,0.0,0.0,0.0,0.0,0.0,0.0,0.0,-0.00436332312999,0.00698131700798,0.0314159265359,0.0,0.0,0.0,0.0,0.0,0.0,0.0,0.0,0.0,0.258984,0.32373,-9.38817,0.0,0.0,0.0,0.0,0.0,0.0,0.0,0.0,0.0
1637019945342773322,66667,1637019945342659572,,0.0,0.0,0.0,0.0,-1.0,0.0,0.0,0.0,0.0,0.0,0.0,0.0,0.0,-0.0366519142919,-0.000872664625997,0.00174532925199,0.0,0.0,0.0,0.0,0.0,0.0,0.0,0.0,0.0,0.291357,-0.388476,-8.902575,0.0,0.0,0.0,0.0,0.0,0.0,0.0,0.0,0.0
1637019945362892513,66668,1637019945362694646,,0.0,0.0,0.0,0.0,-1.0,0.0,0.0,0.0,0.0,0.0,0.0,0.0,0.0,-0.0418879020479,0.00523598775598,-0.0715584993318,0.0,0.0,0.0,0.0,0.0,0.0,0.0,0.0,0.0,-0.161865,0.226611,-9.7119,0.0,0.0,0.0,0.0,0.0,0.0,0.0,0.0,0.0
1637019945382866299,66669,1637019945382684508,,0.0,0.0,0.0,0.0,-1.0,0.0,0.0,0.0,0.0,0.0,0.0,0.0,0.0,0.0226892802759,0.0,-0.0357792496659,0.0,0.0,0.0,0.0,0.0,0.0,0.0,0.0,0.0,0.097119,0.388476,-9.873765,0.0,0.0,0.0,0.0,0.0,0.0,0.0,0.0,0.0
1637019945402969960,66670,1637019945402649489,,0.0,0.0,0.0,0.0,-1.0,0.0,0.0,0.0,0.0,0.0,0.0,0.0,0.0,0.00959931088597,0.012217304764,0.0200712863979,0.0,0.0,0.0,0.0,0.0,0.0,0.0,0.0,0.0,0.64746,0.32373,-9.517662,0.0,0.0,0.0,0.0,0.0,0.0,0.0,0.0,0.0
1637019945423082958,66671,1637019945422728933,,0.0,0.0,0.0,0.0,-1.0,0.0,0.0,0.0,0.0,0.0,0.0,0.0,0.0,-0.0340339204139,-0.0183259571459,-0.0244346095279,0.0,0.0,0.0,0.0,0.0,0.0,0.0,0.0,0.0,0.258984,-0.097119,-9.550035,0.0,0.0,0.0,0.0,0.0,0.0,0.0,0.0,0.0
1637019945442835973,66672,1637019945442662630,,0.0,0.0,0.0,0.0,-1.0,0.0,0.0,0.0,0.0,0.0,0.0,0.0,0.0,-0.0523598775598,-0.0410152374219,-0.00959931088597,0.0,0.0,0.0,0.0,0.0,0.0,0.0,0.0,0.0,0.161865,-0.258984,-10.068003,0.0,0.0,0.0,0.0,0.0,0.0,0.0,0.0,0.0
1637019945462998842,66673,1637019945462767911,,0.0,0.0,0.0,0.0,-1.0,0.0,0.0,0.0,0.0,0.0,0.0,0.0,0.0,-0.0218166156499,0.0549778714378,-0.0261799387799,0.0,0.0,0.0,0.0,0.0,0.0,0.0,0.0,0.0,0.226611,0.194238,-9.938511,0.0,0.0,0.0,0.0,0.0,0.0,0.0,0.0,0.0
1637019945482953921,66674,1637019945482698052,,0.0,0.0,0.0,0.0,-1.0,0.0,0.0,0.0,0.0,0.0,0.0,0.0,0.0,0.0392699081699,0.00349065850399,0.00959931088597,0.0,0.0,0.0,0.0,0.0,0.0,0.0,0.0,0.0,0.291357,0.615087,-8.934948,0.0,0.0,0.0,0.0,0.0,0.0,0.0,0.0,0.0
1637019945502970329,66675,1637019945502686316,,0.0,0.0,0.0,0.0,-1.0,0.0,0.0,0.0,0.0,0.0,0.0,0.0,0.0,0.013962634016,0.0322885911619,0.0610865238198,0.0,0.0,0.0,0.0,0.0,0.0,0.0,0.0,0.0,0.226611,0.485595,-9.841392,0.0,0.0,0.0,0.0,0.0,0.0,0.0,0.0,0.0
1637019945522868758,66676,1637019945522684568,,0.0,0.0,0.0,0.0,-1.0,0.0,0.0,0.0,0.0,0.0,0.0,0.0,0.0,-0.0226892802759,-0.0279252680319,0.0253072741539,0.0,0.0,0.0,0.0,0.0,0.0,0.0,0.0,0.0,0.0,-0.194238,-10.068003,0.0,0.0,0.0,0.0,0.0,0.0,0.0,0.0,0.0
1637019945543073200,66677,1637019945542820091,,0.0,0.0,0.0,0.0,-1.0,0.0,0.0,0.0,0.0,0.0,0.0,0.0,0.0,-0.0602138591938,0.0532325421858,-0.0994837673637,0.0,0.0,0.0,0.0,0.0,0.0,0.0,0.0,0.0,0.582714,-0.129492,-9.38817,0.0,0.0,0.0,0.0,0.0,0.0,0.0,0.0,0.0
1637019945562969450,66678,1637019945562704141,,0.0,0.0,0.0,0.0,-1.0,0.0,0.0,0.0,0.0,0.0,0.0,0.0,0.0,-0.0165806278939,-0.0200712863979,-0.0349065850399,0.0,0.0,0.0,0.0,0.0,0.0,0.0,0.0,0.0,-0.097119,0.485595,-9.809019,0.0,0.0,0.0,0.0,0.0,0.0,0.0,0.0,0.0
1637019945582887671,66679,1637019945582643378,,0.0,0.0,0.0,0.0,-1.0,0.0,0.0,0.0,0.0,0.0,0.0,0.0,0.0,0.0497418836818,0.010471975512,0.0619591884458,0.0,0.0,0.0,0.0,0.0,0.0,0.0,0.0,0.0,-0.161865,0.64746,-9.744273,0.0,0.0,0.0,0.0,0.0,0.0,0.0,0.0,0.0
1637019945602991836,66680,1637019945602691903,,0.0,0.0,0.0,0.0,-1.0,0.0,0.0,0.0,0.0,0.0,0.0,0.0,0.0,0.0287979326579,0.0157079632679,0.0383972435439,0.0,0.0,0.0,0.0,0.0,0.0,0.0,0.0,0.0,0.615087,0.032373,-10.068003,0.0,0.0,0.0,0.0,0.0,0.0,0.0,0.0,0.0
1637019945622838645,66681,1637019945622683012,,0.0,0.0,0.0,0.0,-1.0,0.0,0.0,0.0,0.0,0.0,0.0,0.0,0.0,-0.00261799387799,0.010471975512,-0.0174532925199,0.0,0.0,0.0,0.0,0.0,0.0,0.0,0.0,0.0,0.744579,-0.226611,-9.550035,0.0,0.0,0.0,0.0,0.0,0.0,0.0,0.0,0.0
1637019945643188655,66682,1637019945642762159,,0.0,0.0,0.0,0.0,-1.0,0.0,0.0,0.0,0.0,0.0,0.0,0.0,0.0,-0.0619591884458,0.00523598775598,-0.0418879020479,0.0,0.0,0.0,0.0,0.0,0.0,0.0,0.0,0.0,-0.32373,-0.420849,-9.291051,0.0,0.0,0.0,0.0,0.0,0.0,0.0,0.0,0.0
1637019945663171154,66683,1637019945662881183,,0.0,0.0,0.0,0.0,-1.0,0.0,0.0,0.0,0.0,0.0,0.0,0.0,0.0,0.0427605666739,0.00174532925199,-0.000872664625997,0.0,0.0,0.0,0.0,0.0,0.0,0.0,0.0,0.0,0.129492,0.258984,-9.323424,0.0,0.0,0.0,0.0,0.0,0.0,0.0,0.0,0.0
1637019945682866687,66684,1637019945682717712,,0.0,0.0,0.0,0.0,-1.0,0.0,0.0,0.0,0.0,0.0,0.0,0.0,0.0,0.0331612557879,-0.0253072741539,0.0296705972839,0.0,0.0,0.0,0.0,0.0,0.0,0.0,0.0,0.0,0.226611,0.938817,-9.7119,0.0,0.0,0.0,0.0,0.0,0.0,0.0,0.0,0.0
1637019945703059041,66685,1637019945702753316,,0.0,0.0,0.0,0.0,-1.0,0.0,0.0,0.0,0.0,0.0,0.0,0.0,0.0,-0.010471975512,0.014835298642,-0.0200712863979,0.0,0.0,0.0,0.0,0.0,0.0,0.0,0.0,0.0,0.064746,0.032373,-9.647154,0.0,0.0,0.0,0.0,0.0,0.0,0.0,0.0,0.0
1637019945723028020,66686,1637019945722831939,,0.0,0.0,0.0,0.0,-1.0,0.0,0.0,0.0,0.0,0.0,0.0,0.0,0.0,-0.0471238898038,0.00698131700798,-0.0462512251778,0.0,0.0,0.0,0.0,0.0,0.0,0.0,0.0,0.0,-0.194238,-0.550341,-9.873765,0.0,0.0,0.0,0.0,0.0,0.0,0.0,0.0,0.0
1637019945742980031,66687,1637019945742678315,,0.0,0.0,0.0,0.0,-1.0,0.0,0.0,0.0,0.0,0.0,0.0,0.0,0.0,-0.0410152374219,-0.00436332312999,-0.0637045176978,0.0,0.0,0.0,0.0,0.0,0.0,0.0,0.0,0.0,-0.291357,0.32373,-9.38817,0.0,0.0,0.0,0.0,0.0,0.0,0.0,0.0,0.0
1637019945763237417,66688,1637019945762965773,,0.0,0.0,0.0,0.0,-1.0,0.0,0.0,0.0,0.0,0.0,0.0,0.0,0.0,0.0165806278939,-0.00349065850399,-0.0209439510239,0.0,0.0,0.0,0.0,0.0,0.0,0.0,0.0,0.0,-0.064746,0.679833,-9.420543,0.0,0.0,0.0,0.0,0.0,0.0,0.0,0.0,0.0
1637019945783019200,66689,1637019945782692228,,0.0,0.0,0.0,0.0,-1.0,0.0,0.0,0.0,0.0,0.0,0.0,0.0,0.0,0.0436332312999,-0.00785398163397,0.014835298642,0.0,0.0,0.0,0.0,0.0,0.0,0.0,0.0,0.0,0.097119,0.744579,-9.906138,0.0,0.0,0.0,0.0,0.0,0.0,0.0,0.0,0.0
1637019945803056020,66690,1637019945802737621,,0.0,0.0,0.0,0.0,-1.0,0.0,0.0,0.0,0.0,0.0,0.0,0.0,0.0,0.0,0.0,0.000872664625997,0.0,0.0,0.0,0.0,0.0,0.0,0.0,0.0,0.0,0.291357,0.453222,-9.485289,0.0,0.0,0.0,0.0,0.0,0.0,0.0,0.0,0.0
1637019945823002792,66691,1637019945822673685,,0.0,0.0,0.0,0.0,-1.0,0.0,0.0,0.0,0.0,0.0,0.0,0.0,0.0,-0.0584685299418,0.0174532925199,-0.0427605666739,0.0,0.0,0.0,0.0,0.0,0.0,0.0,0.0,0.0,-0.194238,-0.258984,-10.132749,0.0,0.0,0.0,0.0,0.0,0.0,0.0,0.0,0.0
1637019945842972951,66692,1637019945842667366,,0.0,0.0,0.0,0.0,-1.0,0.0,0.0,0.0,0.0,0.0,0.0,0.0,0.0,-0.013962634016,0.00872664625997,-0.0602138591938,0.0,0.0,0.0,0.0,0.0,0.0,0.0,0.0,0.0,0.064746,0.194238,-10.03563,0.0,0.0,0.0,0.0,0.0,0.0,0.0,0.0,0.0
1637019945862807822,66693,1637019945862700549,,0.0,0.0,0.0,0.0,-1.0,0.0,0.0,0.0,0.0,0.0,0.0,0.0,0.0,0.0436332312999,0.00349065850399,0.0270526034059,0.0,0.0,0.0,0.0,0.0,0.0,0.0,0.0,0.0,0.194238,0.64746,-9.841392,0.0,0.0,0.0,0.0,0.0,0.0,0.0,0.0,0.0
1637019945882910569,66694,1637019945882776115,,0.0,0.0,0.0,0.0,-1.0,0.0,0.0,0.0,0.0,0.0,0.0,0.0,0.0,0.0523598775598,0.00698131700798,0.0488692190558,0.0,0.0,0.0,0.0,0.0,0.0,0.0,0.0,0.0,0.032373,0.356103,-9.582408,0.0,0.0,0.0,0.0,0.0,0.0,0.0,0.0,0.0
1637019945902897508,66695,1637019945902695779,,0.0,0.0,0.0,0.0,-1.0,0.0,0.0,0.0,0.0,0.0,0.0,0.0,0.0,-0.00872664625997,0.00785398163397,-0.0165806278939,0.0,0.0,0.0,0.0,0.0,0.0,0.0,0.0,0.0,0.356103,-0.129492,-9.809019,0.0,0.0,0.0,0.0,0.0,0.0,0.0,0.0,0.0
1637019945923098414,66696,1637019945922711428,,0.0,0.0,0.0,0.0,-1.0,0.0,0.0,0.0,0.0,0.0,0.0,0.0,0.0,-0.0445058959259,0.00349065850399,-0.0610865238198,0.0,0.0,0.0,0.0,0.0,0.0,0.0,0.0,0.0,0.32373,-0.064746,-9.647154,0.0,0.0,0.0,0.0,0.0,0.0,0.0,0.0,0.0
1637019945942800933,66697,1637019945942633607,,0.0,0.0,0.0,0.0,-1.0,0.0,0.0,0.0,0.0,0.0,0.0,0.0,0.0,-0.00610865238198,0.0279252680319,-0.00610865238198,0.0,0.0,0.0,0.0,0.0,0.0,0.0,0.0,0.0,0.0,0.0,-9.970884,0.0,0.0,0.0,0.0,0.0,0.0,0.0,0.0,0.0
1637019945962936633,66698,1637019945962778226,,0.0,0.0,0.0,0.0,-1.0,0.0,0.0,0.0,0.0,0.0,0.0,0.0,0.0,0.0497418836818,-0.00959931088597,0.0479965544298,0.0,0.0,0.0,0.0,0.0,0.0,0.0,0.0,0.0,0.32373,0.194238,-9.485289,0.0,0.0,0.0,0.0,0.0,0.0,0.0,0.0,0.0
1637019945982812076,66699,1637019945982702962,,0.0,0.0,0.0,0.0,-1.0,0.0,0.0,0.0,0.0,0.0,0.0,0.0,0.0,0.0383972435439,-0.013962634016,-0.00174532925199,0.0,0.0,0.0,0.0,0.0,0.0,0.0,0.0,0.0,0.161865,0.291357,-9.032067,0.0,0.0,0.0,0.0,0.0,0.0,0.0,0.0,0.0
1637019946002881087,66700,1637019946002704770,,0.0,0.0,0.0,0.0,-1.0,0.0,0.0,0.0,0.0,0.0,0.0,0.0,0.0,-0.0418879020479,0.014835298642,-0.0296705972839,0.0,0.0,0.0,0.0,0.0,0.0,0.0,0.0,0.0,0.194238,-0.097119,-9.776646,0.0,0.0,0.0,0.0,0.0,0.0,0.0,0.0,0.0
1637019946023342975,66701,1637019946022691085,,0.0,0.0,0.0,0.0,-1.0,0.0,0.0,0.0,0.0,0.0,0.0,0.0,0.0,-0.0383972435439,-0.01308996939,-0.0261799387799,0.0,0.0,0.0,0.0,0.0,0.0,0.0,0.0,0.0,-0.226611,-0.453222,-9.452916,0.0,0.0,0.0,0.0,0.0,0.0,0.0,0.0,0.0
1637019946042800914,66702,1637019946042670300,,0.0,0.0,0.0,0.0,-1.0,0.0,0.0,0.0,0.0,0.0,0.0,0.0,0.0,0.012217304764,0.0253072741539,-0.0410152374219,0.0,0.0,0.0,0.0,0.0,0.0,0.0,0.0,0.0,0.194238,0.161865,-8.999694,0.0,0.0,0.0,0.0,0.0,0.0,0.0,0.0,0.0
1637019946062910345,66703,1637019946062728796,,0.0,0.0,0.0,0.0,-1.0,0.0,0.0,0.0,0.0,0.0,0.0,0.0,0.0,0.014835298642,0.00523598775598,0.0279252680319,0.0,0.0,0.0,0.0,0.0,0.0,0.0,0.0,0.0,0.64746,0.64746,-9.906138,0.0,0.0,0.0,0.0,0.0,0.0,0.0,0.0,0.0
1637019946082901729,66704,1637019946082689776,,0.0,0.0,0.0,0.0,-1.0,0.0,0.0,0.0,0.0,0.0,0.0,0.0,0.0,0.0209439510239,-0.0366519142919,-0.0218166156499,0.0,0.0,0.0,0.0,0.0,0.0,0.0,0.0,0.0,0.809325,-0.161865,-9.582408,0.0,0.0,0.0,0.0,0.0,0.0,0.0,0.0,0.0
1637019946102864978,66705,1637019946102686905,,0.0,0.0,0.0,0.0,-1.0,0.0,0.0,0.0,0.0,0.0,0.0,0.0,0.0,-0.0506145483078,0.012217304764,-0.0383972435439,0.0,0.0,0.0,0.0,0.0,0.0,0.0,0.0,0.0,-0.841698,-0.420849,-9.744273,0.0,0.0,0.0,0.0,0.0,0.0,0.0,0.0,0.0
1637019946123262630,66706,1637019946122685526,,0.0,0.0,0.0,0.0,-1.0,0.0,0.0,0.0,0.0,0.0,0.0,0.0,0.0,-0.0497418836818,0.0340339204139,-0.0349065850399,0.0,0.0,0.0,0.0,0.0,0.0,0.0,0.0,0.0,0.485595,0.097119,-8.675964,0.0,0.0,0.0,0.0,0.0,0.0,0.0,0.0,0.0
1637019946142913804,66707,1637019946142659546,,0.0,0.0,0.0,0.0,-1.0,0.0,0.0,0.0,0.0,0.0,0.0,0.0,0.0,-0.00785398163397,-0.0200712863979,-0.0287979326579,0.0,0.0,0.0,0.0,0.0,0.0,0.0,0.0,0.0,0.032373,0.356103,-9.7119,0.0,0.0,0.0,0.0,0.0,0.0,0.0,0.0,0.0
1637019946162922685,66708,1637019946162743214,,0.0,0.0,0.0,0.0,-1.0,0.0,0.0,0.0,0.0,0.0,0.0,0.0,0.0,0.0410152374219,0.0427605666739,0.0663225115758,0.0,0.0,0.0,0.0,0.0,0.0,0.0,0.0,0.0,0.420849,0.582714,-9.970884,0.0,0.0,0.0,0.0,0.0,0.0,0.0,0.0,0.0
1637019946182911815,66709,1637019946182725234,,0.0,0.0,0.0,0.0,-1.0,0.0,0.0,0.0,0.0,0.0,0.0,0.0,0.0,0.0218166156499,0.00959931088597,0.0331612557879,0.0,0.0,0.0,0.0,0.0,0.0,0.0,0.0,0.0,0.679833,0.32373,-9.38817,0.0,0.0,0.0,0.0,0.0,0.0,0.0,0.0,0.0
1637019946202858270,66710,1637019946202650888,,0.0,0.0,0.0,0.0,-1.0,0.0,0.0,0.0,0.0,0.0,0.0,0.0,0.0,-0.0715584993318,0.0157079632679,-0.0305432619099,0.0,0.0,0.0,0.0,0.0,0.0,0.0,0.0,0.0,-0.226611,-0.356103,-9.679527,0.0,0.0,0.0,0.0,0.0,0.0,0.0,0.0,0.0
1637019946223315102,66711,1637019946222676537,,0.0,0.0,0.0,0.0,-1.0,0.0,0.0,0.0,0.0,0.0,0.0,0.0,0.0,-0.00523598775598,-0.0287979326579,-0.0296705972839,0.0,0.0,0.0,0.0,0.0,0.0,0.0,0.0,0.0,-0.258984,0.097119,-9.517662,0.0,0.0,0.0,0.0,0.0,0.0,0.0,0.0,0.0
1637019946242895942,66712,1637019946242729769,,0.0,0.0,0.0,0.0,-1.0,0.0,0.0,0.0,0.0,0.0,0.0,0.0,0.0,0.0253072741539,-0.0174532925199,-0.0157079632679,0.0,0.0,0.0,0.0,0.0,0.0,0.0,0.0,0.0,-0.420849,0.64746,-9.323424,0.0,0.0,0.0,0.0,0.0,0.0,0.0,0.0,0.0
1637019946262966165,66713,1637019946262739662,,0.0,0.0,0.0,0.0,-1.0,0.0,0.0,0.0,0.0,0.0,0.0,0.0,0.0,0.0174532925199,0.00174532925199,0.0279252680319,0.0,0.0,0.0,0.0,0.0,0.0,0.0,0.0,0.0,0.388476,0.194238,-9.970884,0.0,0.0,0.0,0.0,0.0,0.0,0.0,0.0,0.0
1637019946282758315,66714,1637019946282588639,,0.0,0.0,0.0,0.0,-1.0,0.0,0.0,0.0,0.0,0.0,0.0,0.0,0.0,-0.00174532925199,-0.0165806278939,0.0157079632679,0.0,0.0,0.0,0.0,0.0,0.0,0.0,0.0,0.0,0.356103,-0.129492,-9.906138,0.0,0.0,0.0,0.0,0.0,0.0,0.0,0.0,0.0
1637019946302726811,66715,1637019946302644786,,0.0,0.0,0.0,0.0,-1.0,0.0,0.0,0.0,0.0,0.0,0.0,0.0,0.0,-0.0645771823238,-0.00785398163397,-0.0174532925199,0.0,0.0,0.0,0.0,0.0,0.0,0.0,0.0,0.0,-0.097119,-0.291357,-9.193932,0.0,0.0,0.0,0.0,0.0,0.0,0.0,0.0,0.0
1637019946322843430,66716,1637019946322623398,,0.0,0.0,0.0,0.0,-1.0,0.0,0.0,0.0,0.0,0.0,0.0,0.0,0.0,-0.00872664625997,0.00872664625997,-0.00261799387799,0.0,0.0,0.0,0.0,0.0,0.0,0.0,0.0,0.0,0.097119,0.258984,-9.582408,0.0,0.0,0.0,0.0,0.0,0.0,0.0,0.0,0.0
1637019946342828092,66717,1637019946342687594,,0.0,0.0,0.0,0.0,-1.0,0.0,0.0,0.0,0.0,0.0,0.0,0.0,0.0,0.0558505360638,0.000872664625997,0.0357792496659,0.0,0.0,0.0,0.0,0.0,0.0,0.0,0.0,0.0,0.226611,0.517968,-9.582408,0.0,0.0,0.0,0.0,0.0,0.0,0.0,0.0,0.0
1637019946362689237,66718,1637019946362580380,,0.0,0.0,0.0,0.0,-1.0,0.0,0.0,0.0,0.0,0.0,0.0,0.0,0.0,0.0558505360638,-0.00523598775598,0.012217304764,0.0,0.0,0.0,0.0,0.0,0.0,0.0,0.0,0.0,-0.388476,0.226611,-8.708337,0.0,0.0,0.0,0.0,0.0,0.0,0.0,0.0,0.0
1637019946382796486,66719,1637019946382671722,,0.0,0.0,0.0,0.0,-1.0,0.0,0.0,0.0,0.0,0.0,0.0,0.0,0.0,-0.0532325421858,0.000872664625997,0.00610865238198,0.0,0.0,0.0,0.0,0.0,0.0,0.0,0.0,0.0,0.485595,0.064746,-9.873765,0.0,0.0,0.0,0.0,0.0,0.0,0.0,0.0,0.0
1637019946402932385,66720,1637019946402676285,,0.0,0.0,0.0,0.0,-1.0,0.0,0.0,0.0,0.0,0.0,0.0,0.0,0.0,-0.0663225115758,-0.000872664625997,-0.0541052068118,0.0,0.0,0.0,0.0,0.0,0.0,0.0,0.0,0.0,0.129492,-0.194238,-9.485289,0.0,0.0,0.0,0.0,0.0,0.0,0.0,0.0,0.0
1637019946423039154,66721,1637019946422656127,,0.0,0.0,0.0,0.0,-1.0,0.0,0.0,0.0,0.0,0.0,0.0,0.0,0.0,0.0157079632679,0.0165806278939,-0.0541052068118,0.0,0.0,0.0,0.0,0.0,0.0,0.0,0.0,0.0,-0.064746,0.550341,-9.550035,0.0,0.0,0.0,0.0,0.0,0.0,0.0,0.0,0.0
1637019946444107638,66722,1637019946442648335,,0.0,0.0,0.0,0.0,-1.0,0.0,0.0,0.0,0.0,0.0,0.0,0.0,0.0,0.0418879020479,0.00872664625997,0.0479965544298,0.0,0.0,0.0,0.0,0.0,0.0,0.0,0.0,0.0,0.291357,0.744579,-9.38817,0.0,0.0,0.0,0.0,0.0,0.0,0.0,0.0,0.0
1637019946462872614,66723,1637019946462679550,,0.0,0.0,0.0,0.0,-1.0,0.0,0.0,0.0,0.0,0.0,0.0,0.0,0.0,0.0191986217719,-0.00174532925199,0.0226892802759,0.0,0.0,0.0,0.0,0.0,0.0,0.0,0.0,0.0,0.291357,0.0,-9.614781,0.0,0.0,0.0,0.0,0.0,0.0,0.0,0.0,0.0
1637019946482973648,66724,1637019946482745030,,0.0,0.0,0.0,0.0,-1.0,0.0,0.0,0.0,0.0,0.0,0.0,0.0,0.0,-0.0279252680319,0.0,-0.0462512251778,0.0,0.0,0.0,0.0,0.0,0.0,0.0,0.0,0.0,0.161865,-0.161865,-9.550035,0.0,0.0,0.0,0.0,0.0,0.0,0.0,0.0,0.0
1637019946502974858,66725,1637019946502684167,,0.0,0.0,0.0,0.0,-1.0,0.0,0.0,0.0,0.0,0.0,0.0,0.0,0.0,-0.0270526034059,0.00610865238198,-0.0575958653158,0.0,0.0,0.0,0.0,0.0,0.0,0.0,0.0,0.0,0.388476,0.064746,-9.291051,0.0,0.0,0.0,0.0,0.0,0.0,0.0,0.0,0.0
1637019946523052492,66726,1637019946522686578,,0.0,0.0,0.0,0.0,-1.0,0.0,0.0,0.0,0.0,0.0,0.0,0.0,0.0,0.01308996939,0.0253072741539,0.0174532925199,0.0,0.0,0.0,0.0,0.0,0.0,0.0,0.0,0.0,0.194238,0.32373,-9.873765,0.0,0.0,0.0,0.0,0.0,0.0,0.0,0.0,0.0
1637019946543121928,66727,1637019946542723474,,0.0,0.0,0.0,0.0,-1.0,0.0,0.0,0.0,0.0,0.0,0.0,0.0,0.0,0.0724311639578,0.00349065850399,0.0776671517137,0.0,0.0,0.0,0.0,0.0,0.0,0.0,0.0,0.0,-0.550341,0.582714,-9.970884,0.0,0.0,0.0,0.0,0.0,0.0,0.0,0.0,0.0
1637019946562856504,66728,1637019946562652650,,0.0,0.0,0.0,0.0,-1.0,0.0,0.0,0.0,0.0,0.0,0.0,0.0,0.0,0.000872664625997,0.0174532925199,0.0602138591938,0.0,0.0,0.0,0.0,0.0,0.0,0.0,0.0,0.0,-0.161865,0.226611,-9.452916,0.0,0.0,0.0,0.0,0.0,0.0,0.0,0.0,0.0
1637019946582897323,66729,1637019946582689133,,0.0,0.0,0.0,0.0,-1.0,0.0,0.0,0.0,0.0,0.0,0.0,0.0,0.0,-0.0462512251778,0.0366519142919,-0.0602138591938,0.0,0.0,0.0,0.0,0.0,0.0,0.0,0.0,0.0,0.517968,0.097119,-10.132749,0.0,0.0,0.0,0.0,0.0,0.0,0.0,0.0,0.0
1637019946603036463,66730,1637019946602684267,,0.0,0.0,0.0,0.0,-1.0,0.0,0.0,0.0,0.0,0.0,0.0,0.0,0.0,-0.0706858347058,-0.0427605666739,-0.0165806278939,0.0,0.0,0.0,0.0,0.0,0.0,0.0,0.0,0.0,-0.194238,-0.194238,-9.517662,0.0,0.0,0.0,0.0,0.0,0.0,0.0,0.0,0.0
1637019946622828314,66731,1637019946622645622,,0.0,0.0,0.0,0.0,-1.0,0.0,0.0,0.0,0.0,0.0,0.0,0.0,0.0,0.0549778714378,0.000872664625997,0.0200712863979,0.0,0.0,0.0,0.0,0.0,0.0,0.0,0.0,0.0,-0.258984,0.161865,-9.873765,0.0,0.0,0.0,0.0,0.0,0.0,0.0,0.0,0.0
1637019946643077932,66732,1637019946642611300,,0.0,0.0,0.0,0.0,-1.0,0.0,0.0,0.0,0.0,0.0,0.0,0.0,0.0,0.0471238898038,0.0357792496659,0.00436332312999,0.0,0.0,0.0,0.0,0.0,0.0,0.0,0.0,0.0,0.841698,1.197801,-9.938511,0.0,0.0,0.0,0.0,0.0,0.0,0.0,0.0,0.0
1637019946662911704,66733,1637019946662685380,,0.0,0.0,0.0,0.0,-1.0,0.0,0.0,0.0,0.0,0.0,0.0,0.0,0.0,-0.0261799387799,0.00436332312999,0.00785398163397,0.0,0.0,0.0,0.0,0.0,0.0,0.0,0.0,0.0,0.194238,0.0,-10.100376,0.0,0.0,0.0,0.0,0.0,0.0,0.0,0.0,0.0
1637019946682794140,66734,1637019946682664884,,0.0,0.0,0.0,0.0,-1.0,0.0,0.0,0.0,0.0,0.0,0.0,0.0,0.0,-0.0811578102177,0.0,-0.013962634016,0.0,0.0,0.0,0.0,0.0,0.0,0.0,0.0,0.0,-0.517968,-0.194238,-9.485289,0.0,0.0,0.0,0.0,0.0,0.0,0.0,0.0,0.0
1637019946702896961,66735,1637019946702685294,,0.0,0.0,0.0,0.0,-1.0,0.0,0.0,0.0,0.0,0.0,0.0,0.0,0.0,0.00785398163397,-0.0366519142919,-0.0244346095279,0.0,0.0,0.0,0.0,0.0,0.0,0.0,0.0,0.0,0.582714,0.420849,-9.873765,0.0,0.0,0.0,0.0,0.0,0.0,0.0,0.0,0.0
1637019946723062603,66736,1637019946722700597,,0.0,0.0,0.0,0.0,-1.0,0.0,0.0,0.0,0.0,0.0,0.0,0.0,0.0,0.0724311639578,0.0767944870878,0.00698131700798,0.0,0.0,0.0,0.0,0.0,0.0,0.0,0.0,0.0,0.129492,0.679833,-9.809019,0.0,0.0,0.0,0.0,0.0,0.0,0.0,0.0,0.0
1637019946742803919,66737,1637019946742674005,,0.0,0.0,0.0,0.0,-1.0,0.0,0.0,0.0,0.0,0.0,0.0,0.0,0.0,0.0418879020479,-0.0541052068118,0.0488692190558,0.0,0.0,0.0,0.0,0.0,0.0,0.0,0.0,0.0,-0.129492,0.226611,-9.258678,0.0,0.0,0.0,0.0,0.0,0.0,0.0,0.0,0.0
1637019946762892718,66738,1637019946762788953,,0.0,0.0,0.0,0.0,-1.0,0.0,0.0,0.0,0.0,0.0,0.0,0.0,0.0,-0.0287979326579,0.00523598775598,-0.0322885911619,0.0,0.0,0.0,0.0,0.0,0.0,0.0,0.0,0.0,-0.615087,-0.32373,-9.291051,0.0,0.0,0.0,0.0,0.0,0.0,0.0,0.0,0.0
1637019946782779346,66739,1637019946782640827,,0.0,0.0,0.0,0.0,-1.0,0.0,0.0,0.0,0.0,0.0,0.0,0.0,0.0,-0.0741764932098,0.013962634016,-0.121300383014,0.0,0.0,0.0,0.0,0.0,0.0,0.0,0.0,0.0,0.809325,0.0,-10.35936,0.0,0.0,0.0,0.0,0.0,0.0,0.0,0.0,0.0
1637019946803238471,66740,1637019946802812113,,0.0,0.0,0.0,0.0,-1.0,0.0,0.0,0.0,0.0,0.0,0.0,0.0,0.0,-0.000872664625997,-0.00174532925199,-0.0383972435439,0.0,0.0,0.0,0.0,0.0,0.0,0.0,0.0,0.0,0.32373,0.097119,-9.776646,0.0,0.0,0.0,0.0,0.0,0.0,0.0,0.0,0.0
1637019946823396392,66741,1637019946822705277,,0.0,0.0,0.0,0.0,-1.0,0.0,0.0,0.0,0.0,0.0,0.0,0.0,0.0,0.0287979326579,-0.000872664625997,0.0383972435439,0.0,0.0,0.0,0.0,0.0,0.0,0.0,0.0,0.0,-0.032373,0.517968,-9.582408,0.0,0.0,0.0,0.0,0.0,0.0,0.0,0.0,0.0
1637019946843074114,66742,1637019946842639512,,0.0,0.0,0.0,0.0,-1.0,0.0,0.0,0.0,0.0,0.0,0.0,0.0,0.0,0.0514872129338,0.00959931088597,-0.00174532925199,0.0,0.0,0.0,0.0,0.0,0.0,0.0,0.0,0.0,0.517968,0.064746,-10.35936,0.0,0.0,0.0,0.0,0.0,0.0,0.0,0.0,0.0
1637019946862892537,66743,1637019946862741781,,0.0,0.0,0.0,0.0,-1.0,0.0,0.0,0.0,0.0,0.0,0.0,0.0,0.0,-0.0637045176978,-0.0218166156499,-0.00698131700798,0.0,0.0,0.0,0.0,0.0,0.0,0.0,0.0,0.0,0.32373,0.0,-9.873765,0.0,0.0,0.0,0.0,0.0,0.0,0.0,0.0,0.0
1637019946882843884,66744,1637019946882719309,,0.0,0.0,0.0,0.0,-1.0,0.0,0.0,0.0,0.0,0.0,0.0,0.0,0.0,-0.0549778714378,0.0261799387799,-0.0471238898038,0.0,0.0,0.0,0.0,0.0,0.0,0.0,0.0,0.0,-0.226611,-0.226611,-8.74071,0.0,0.0,0.0,0.0,0.0,0.0,0.0,0.0,0.0
1637019946903001349,66745,1637019946902625592,,0.0,0.0,0.0,0.0,-1.0,0.0,0.0,0.0,0.0,0.0,0.0,0.0,0.0,0.0340339204139,0.013962634016,-0.013962634016,0.0,0.0,0.0,0.0,0.0,0.0,0.0,0.0,0.0,0.485595,0.517968,-10.003257,0.0,0.0,0.0,0.0,0.0,0.0,0.0,0.0,0.0
1637019946923145221,66746,1637019946922751110,,0.0,0.0,0.0,0.0,-1.0,0.0,0.0,0.0,0.0,0.0,0.0,0.0,0.0,0.0383972435439,-0.012217304764,0.0497418836818,0.0,0.0,0.0,0.0,0.0,0.0,0.0,0.0,0.0,0.64746,0.32373,-10.488852,0.0,0.0,0.0,0.0,0.0,0.0,0.0,0.0,0.0
1637019946943153112,66747,1637019946942717921,,0.0,0.0,0.0,0.0,-1.0,0.0,0.0,0.0,0.0,0.0,0.0,0.0,0.0,0.011344640138,0.010471975512,0.00261799387799,0.0,0.0,0.0,0.0,0.0,0.0,0.0,0.0,0.0,0.291357,0.064746,-9.129186,0.0,0.0,0.0,0.0,0.0,0.0,0.0,0.0,0.0
1637019946962976000,66748,1637019946962724629,,0.0,0.0,0.0,0.0,-1.0,0.0,0.0,0.0,0.0,0.0,0.0,0.0,0.0,-0.0541052068118,-0.01308996939,-0.00261799387799,0.0,0.0,0.0,0.0,0.0,0.0,0.0,0.0,0.0,0.064746,-0.550341,-9.517662,0.0,0.0,0.0,0.0,0.0,0.0,0.0,0.0,0.0
1637019946982967797,66749,1637019946982735057,,0.0,0.0,0.0,0.0,-1.0,0.0,0.0,0.0,0.0,0.0,0.0,0.0,0.0,-0.0174532925199,-0.014835298642,-0.00349065850399,0.0,0.0,0.0,0.0,0.0,0.0,0.0,0.0,0.0,0.291357,0.226611,-10.229868,0.0,0.0,0.0,0.0,0.0,0.0,0.0,0.0,0.0
1637019947002897001,66750,1637019947002664757,,0.0,0.0,0.0,0.0,-1.0,0.0,0.0,0.0,0.0,0.0,0.0,0.0,0.0,0.0165806278939,0.00523598775598,-0.0174532925199,0.0,0.0,0.0,0.0,0.0,0.0,0.0,0.0,0.0,0.129492,0.582714,-9.323424,0.0,0.0,0.0,0.0,0.0,0.0,0.0,0.0,0.0
1637019947025241498,66751,1637019947024928662,,0.0,0.0,0.0,0.0,-1.0,0.0,0.0,0.0,0.0,0.0,0.0,0.0,0.0,0.0357792496659,0.00349065850399,0.0287979326579,0.0,0.0,0.0,0.0,0.0,0.0,0.0,0.0,0.0,0.226611,0.517968,-9.38817,0.0,0.0,0.0,0.0,0.0,0.0,0.0,0.0,0.0
1637019947042786189,66752,1637019947042689297,,0.0,0.0,0.0,0.0,-1.0,0.0,0.0,0.0,0.0,0.0,0.0,0.0,0.0,0.00436332312999,0.0209439510239,0.0226892802759,0.0,0.0,0.0,0.0,0.0,0.0,0.0,0.0,0.0,0.453222,0.064746,-10.35936,0.0,0.0,0.0,0.0,0.0,0.0,0.0,0.0,0.0
1637019947062852167,66753,1637019947062672729,,0.0,0.0,0.0,0.0,-1.0,0.0,0.0,0.0,0.0,0.0,0.0,0.0,0.0,-0.0296705972839,-0.00261799387799,-0.0724311639578,0.0,0.0,0.0,0.0,0.0,0.0,0.0,0.0,0.0,0.194238,-0.161865,-9.258678,0.0,0.0,0.0,0.0,0.0,0.0,0.0,0.0,0.0
1637019947082883200,66754,1637019947082698720,,0.0,0.0,0.0,0.0,-1.0,0.0,0.0,0.0,0.0,0.0,0.0,0.0,0.0,-0.0506145483078,0.0209439510239,-0.0637045176978,0.0,0.0,0.0,0.0,0.0,0.0,0.0,0.0,0.0,-0.388476,0.32373,-9.032067,0.0,0.0,0.0,0.0,0.0,0.0,0.0,0.0,0.0
1637019947102937260,66755,1637019947102655099,,0.0,0.0,0.0,0.0,-1.0,0.0,0.0,0.0,0.0,0.0,0.0,0.0,0.0,0.0549778714378,-0.010471975512,-0.012217304764,0.0,0.0,0.0,0.0,0.0,0.0,0.0,0.0,0.0,0.453222,-0.032373,-10.068003,0.0,0.0,0.0,0.0,0.0,0.0,0.0,0.0,0.0
1637019947123444046,66756,1637019947122695059,,0.0,0.0,0.0,0.0,-1.0,0.0,0.0,0.0,0.0,0.0,0.0,0.0,0.0,0.00436332312999,-0.00610865238198,0.00785398163397,0.0,0.0,0.0,0.0,0.0,0.0,0.0,0.0,0.0,0.388476,0.097119,-10.003257,0.0,0.0,0.0,0.0,0.0,0.0,0.0,0.0,0.0
1637019947143204298,66757,1637019947142758963,,0.0,0.0,0.0,0.0,-1.0,0.0,0.0,0.0,0.0,0.0,0.0,0.0,0.0,-0.0575958653158,0.0314159265359,-0.0183259571459,0.0,0.0,0.0,0.0,0.0,0.0,0.0,0.0,0.0,0.129492,0.388476,-9.291051,0.0,0.0,0.0,0.0,0.0,0.0,0.0,0.0,0.0
1637019947162821970,66758,1637019947162673958,,0.0,0.0,0.0,0.0,-1.0,0.0,0.0,0.0,0.0,0.0,0.0,0.0,0.0,-0.0829031394697,0.00174532925199,-0.0392699081699,0.0,0.0,0.0,0.0,0.0,0.0,0.0,0.0,0.0,0.0,0.161865,-9.7119,0.0,0.0,0.0,0.0,0.0,0.0,0.0,0.0,0.0
1637019947182837431,66759,1637019947182690337,,0.0,0.0,0.0,0.0,-1.0,0.0,0.0,0.0,0.0,0.0,0.0,0.0,0.0,-0.01308996939,0.0183259571459,-0.0314159265359,0.0,0.0,0.0,0.0,0.0,0.0,0.0,0.0,0.0,0.226611,-0.064746,-10.585971,0.0,0.0,0.0,0.0,0.0,0.0,0.0,0.0,0.0
1637019947202874713,66760,1637019947202642154,,0.0,0.0,0.0,0.0,-1.0,0.0,0.0,0.0,0.0,0.0,0.0,0.0,0.0,0.0462512251778,0.012217304764,0.0357792496659,0.0,0.0,0.0,0.0,0.0,0.0,0.0,0.0,0.0,0.0,0.712206,-9.291051,0.0,0.0,0.0,0.0,0.0,0.0,0.0,0.0,0.0
1637019947222963152,66761,1637019947222692770,,0.0,0.0,0.0,0.0,-1.0,0.0,0.0,0.0,0.0,0.0,0.0,0.0,0.0,0.010471975512,0.0506145483078,0.0471238898038,0.0,0.0,0.0,0.0,0.0,0.0,0.0,0.0,0.0,-0.161865,0.453222,-8.999694,0.0,0.0,0.0,0.0,0.0,0.0,0.0,0.0,0.0
1637019947242895993,66762,1637019947242660204,,0.0,0.0,0.0,0.0,-1.0,0.0,0.0,0.0,0.0,0.0,0.0,0.0,0.0,-0.0523598775598,-0.0314159265359,-0.0349065850399,0.0,0.0,0.0,0.0,0.0,0.0,0.0,0.0,0.0,0.582714,0.032373,-9.841392,0.0,0.0,0.0,0.0,0.0,0.0,0.0,0.0,0.0
1637019947262740304,66763,1637019947262603118,,0.0,0.0,0.0,0.0,-1.0,0.0,0.0,0.0,0.0,0.0,0.0,0.0,0.0,-0.0628318530718,-0.014835298642,-0.0715584993318,0.0,0.0,0.0,0.0,0.0,0.0,0.0,0.0,0.0,-0.161865,-0.291357,-9.032067,0.0,0.0,0.0,0.0,0.0,0.0,0.0,0.0,0.0
1637019947282843091,66764,1637019947282647521,,0.0,0.0,0.0,0.0,-1.0,0.0,0.0,0.0,0.0,0.0,0.0,0.0,0.0,0.00174532925199,0.00698131700798,-0.00872664625997,0.0,0.0,0.0,0.0,0.0,0.0,0.0,0.0,0.0,-0.097119,0.226611,-9.452916,0.0,0.0,0.0,0.0,0.0,0.0,0.0,0.0,0.0
1637019947302728392,66765,1637019947302586061,,0.0,0.0,0.0,0.0,-1.0,0.0,0.0,0.0,0.0,0.0,0.0,0.0,0.0,0.0584685299418,-0.0270526034059,0.0244346095279,0.0,0.0,0.0,0.0,0.0,0.0,0.0,0.0,0.0,0.097119,0.550341,-9.323424,0.0,0.0,0.0,0.0,0.0,0.0,0.0,0.0,0.0
1637019947323052032,66766,1637019947322692773,,0.0,0.0,0.0,0.0,-1.0,0.0,0.0,0.0,0.0,0.0,0.0,0.0,0.0,0.00523598775598,-0.00349065850399,0.0357792496659,0.0,0.0,0.0,0.0,0.0,0.0,0.0,0.0,0.0,0.679833,0.420849,-9.744273,0.0,0.0,0.0,0.0,0.0,0.0,0.0,0.0,0.0
1637019947342909210,66767,1637019947342599802,,0.0,0.0,0.0,0.0,-1.0,0.0,0.0,0.0,0.0,0.0,0.0,0.0,0.0,-0.0410152374219,-0.0305432619099,0.0296705972839,0.0,0.0,0.0,0.0,0.0,0.0,0.0,0.0,0.0,0.161865,-0.226611,-9.38817,0.0,0.0,0.0,0.0,0.0,0.0,0.0,0.0,0.0
1637019947362787501,66768,1637019947362641660,,0.0,0.0,0.0,0.0,-1.0,0.0,0.0,0.0,0.0,0.0,0.0,0.0,0.0,-0.0349065850399,0.0593411945678,-0.0401425727959,0.0,0.0,0.0,0.0,0.0,0.0,0.0,0.0,0.0,0.129492,0.097119,-9.355797,0.0,0.0,0.0,0.0,0.0,0.0,0.0,0.0,0.0
1637019947382871066,66769,1637019947382609521,,0.0,0.0,0.0,0.0,-1.0,0.0,0.0,0.0,0.0,0.0,0.0,0.0,0.0,0.0357792496659,-0.010471975512,-0.0375245789179,0.0,0.0,0.0,0.0,0.0,0.0,0.0,0.0,0.0,0.582714,0.485595,-9.517662,0.0,0.0,0.0,0.0,0.0,0.0,0.0,0.0,0.0
1637019947402840674,66770,1637019947402662751,,0.0,0.0,0.0,0.0,-1.0,0.0,0.0,0.0,0.0,0.0,0.0,0.0,0.0,0.00610865238198,-0.00610865238198,0.0270526034059,0.0,0.0,0.0,0.0,0.0,0.0,0.0,0.0,0.0,-0.161865,0.420849,-9.485289,0.0,0.0,0.0,0.0,0.0,0.0,0.0,0.0,0.0
1637019947423229327,66771,1637019947422770469,,0.0,0.0,0.0,0.0,-1.0,0.0,0.0,0.0,0.0,0.0,0.0,0.0,0.0,0.00436332312999,0.0296705972839,0.00523598775598,0.0,0.0,0.0,0.0,0.0,0.0,0.0,0.0,0.0,0.712206,0.064746,-10.068003,0.0,0.0,0.0,0.0,0.0,0.0,0.0,0.0,0.0
1637019947442797943,66772,1637019947442627192,,0.0,0.0,0.0,0.0,-1.0,0.0,0.0,0.0,0.0,0.0,0.0,0.0,0.0,-0.0514872129338,0.011344640138,-0.0829031394697,0.0,0.0,0.0,0.0,0.0,0.0,0.0,0.0,0.0,0.226611,-0.161865,-9.938511,0.0,0.0,0.0,0.0,0.0,0.0,0.0,0.0,0.0
1637019947462980223,66773,1637019947462676675,,0.0,0.0,0.0,0.0,-1.0,0.0,0.0,0.0,0.0,0.0,0.0,0.0,0.0,-0.0479965544298,-0.0375245789179,-0.0846484687217,0.0,0.0,0.0,0.0,0.0,0.0,0.0,0.0,0.0,-0.129492,0.161865,-9.355797,0.0,0.0,0.0,0.0,0.0,0.0,0.0,0.0,0.0
1637019947482796785,66774,1637019947482641607,,0.0,0.0,0.0,0.0,-1.0,0.0,0.0,0.0,0.0,0.0,0.0,0.0,0.0,0.0392699081699,0.0174532925199,0.013962634016,0.0,0.0,0.0,0.0,0.0,0.0,0.0,0.0,0.0,-0.032373,0.582714,-9.517662,0.0,0.0,0.0,0.0,0.0,0.0,0.0,0.0,0.0
1637019947502765097,66775,1637019947502624160,,0.0,0.0,0.0,0.0,-1.0,0.0,0.0,0.0,0.0,0.0,0.0,0.0,0.0,0.0427605666739,0.00610865238198,0.0663225115758,0.0,0.0,0.0,0.0,0.0,0.0,0.0,0.0,0.0,0.453222,0.485595,-10.294614,0.0,0.0,0.0,0.0,0.0,0.0,0.0,0.0,0.0
1637019947523048496,66776,1637019947522690403,,0.0,0.0,0.0,0.0,-1.0,0.0,0.0,0.0,0.0,0.0,0.0,0.0,0.0,-0.010471975512,0.014835298642,-0.00349065850399,0.0,0.0,0.0,0.0,0.0,0.0,0.0,0.0,0.0,0.550341,0.258984,-10.132749,0.0,0.0,0.0,0.0,0.0,0.0,0.0,0.0,0.0
1637019947542808204,66777,1637019947542601144,,0.0,0.0,0.0,0.0,-1.0,0.0,0.0,0.0,0.0,0.0,0.0,0.0,0.0,-0.0279252680319,0.0261799387799,-0.0558505360638,0.0,0.0,0.0,0.0,0.0,0.0,0.0,0.0,0.0,0.161865,-0.291357,-8.967321,0.0,0.0,0.0,0.0,0.0,0.0,0.0,0.0,0.0
1637019947562781806,66778,1637019947562619718,,0.0,0.0,0.0,0.0,-1.0,0.0,0.0,0.0,0.0,0.0,0.0,0.0,0.0,0.00872664625997,-0.00523598775598,-0.0331612557879,0.0,0.0,0.0,0.0,0.0,0.0,0.0,0.0,0.0,0.0,0.161865,-9.744273,0.0,0.0,0.0,0.0,0.0,0.0,0.0,0.0,0.0
1637019947582775342,66779,1637019947582625102,,0.0,0.0,0.0,0.0,-1.0,0.0,0.0,0.0,0.0,0.0,0.0,0.0,0.0,0.0663225115758,-0.00959931088597,0.0191986217719,0.0,0.0,0.0,0.0,0.0,0.0,0.0,0.0,0.0,0.194238,0.615087,-10.229868,0.0,0.0,0.0,0.0,0.0,0.0,0.0,0.0,0.0
1637019947602826723,66780,1637019947602640354,,0.0,0.0,0.0,0.0,-1.0,0.0,0.0,0.0,0.0,0.0,0.0,0.0,0.0,0.0183259571459,0.0157079632679,0.0383972435439,0.0,0.0,0.0,0.0,0.0,0.0,0.0,0.0,0.0,0.291357,0.420849,-9.550035,0.0,0.0,0.0,0.0,0.0,0.0,0.0,0.0,0.0
1637019947623085683,66781,1637019947622666704,,0.0,0.0,0.0,0.0,-1.0,0.0,0.0,0.0,0.0,0.0,0.0,0.0,0.0,-0.0270526034059,0.000872664625997,-0.0183259571459,0.0,0.0,0.0,0.0,0.0,0.0,0.0,0.0,0.0,0.0,-0.064746,-9.452916,0.0,0.0,0.0,0.0,0.0,0.0,0.0,0.0,0.0
1637019947642807872,66782,1637019947642640556,,0.0,0.0,0.0,0.0,-1.0,0.0,0.0,0.0,0.0,0.0,0.0,0.0,0.0,-0.0401425727959,0.00174532925199,-0.0209439510239,0.0,0.0,0.0,0.0,0.0,0.0,0.0,0.0,0.0,0.0,-0.097119,-9.776646,0.0,0.0,0.0,0.0,0.0,0.0,0.0,0.0,0.0
1637019947662845968,66783,1637019947662650309,,0.0,0.0,0.0,0.0,-1.0,0.0,0.0,0.0,0.0,0.0,0.0,0.0,0.0,0.00436332312999,0.0157079632679,-0.00523598775598,0.0,0.0,0.0,0.0,0.0,0.0,0.0,0.0,0.0,0.64746,0.226611,-9.873765,0.0,0.0,0.0,0.0,0.0,0.0,0.0,0.0,0.0
1637019947682783044,66784,1637019947682675995,,0.0,0.0,0.0,0.0,-1.0,0.0,0.0,0.0,0.0,0.0,0.0,0.0,0.0,0.0410152374219,-0.00349065850399,0.0226892802759,0.0,0.0,0.0,0.0,0.0,0.0,0.0,0.0,0.0,0.0,0.517968,-9.517662,0.0,0.0,0.0,0.0,0.0,0.0,0.0,0.0,0.0
1637019947702963491,66785,1637019947702652080,,0.0,0.0,0.0,0.0,-1.0,0.0,0.0,0.0,0.0,0.0,0.0,0.0,0.0,0.0174532925199,0.00610865238198,-0.0157079632679,0.0,0.0,0.0,0.0,0.0,0.0,0.0,0.0,0.0,-0.258984,0.194238,-9.38817,0.0,0.0,0.0,0.0,0.0,0.0,0.0,0.0,0.0
1637019947728677520,66786,1637019947728472431,,0.0,0.0,0.0,0.0,-1.0,0.0,0.0,0.0,0.0,0.0,0.0,0.0,0.0,-0.0549778714378,-0.01308996939,-0.0226892802759,0.0,0.0,0.0,0.0,0.0,0.0,0.0,0.0,0.0,0.097119,0.194238,-10.003257,0.0,0.0,0.0,0.0,0.0,0.0,0.0,0.0,0.0
1637019947742853854,66787,1637019947742615516,,0.0,0.0,0.0,0.0,-1.0,0.0,0.0,0.0,0.0,0.0,0.0,0.0,0.0,-0.0479965544298,0.0357792496659,-0.0305432619099,0.0,0.0,0.0,0.0,0.0,0.0,0.0,0.0,0.0,0.226611,-0.194238,-9.744273,0.0,0.0,0.0,0.0,0.0,0.0,0.0,0.0,0.0
1637019947762829357,66788,1637019947762696598,,0.0,0.0,0.0,0.0,-1.0,0.0,0.0,0.0,0.0,0.0,0.0,0.0,0.0,0.0,0.0261799387799,-0.0253072741539,0.0,0.0,0.0,0.0,0.0,0.0,0.0,0.0,0.0,-0.032373,0.550341,-8.999694,0.0,0.0,0.0,0.0,0.0,0.0,0.0,0.0,0.0
1637019947782807475,66789,1637019947782678946,,0.0,0.0,0.0,0.0,-1.0,0.0,0.0,0.0,0.0,0.0,0.0,0.0,0.0,0.0497418836818,-0.0183259571459,0.0462512251778,0.0,0.0,0.0,0.0,0.0,0.0,0.0,0.0,0.0,0.388476,0.615087,-10.003257,0.0,0.0,0.0,0.0,0.0,0.0,0.0,0.0,0.0
1637019947802949874,66790,1637019947802645692,,0.0,0.0,0.0,0.0,-1.0,0.0,0.0,0.0,0.0,0.0,0.0,0.0,0.0,0.013962634016,-0.00436332312999,0.00872664625997,0.0,0.0,0.0,0.0,0.0,0.0,0.0,0.0,0.0,0.161865,0.32373,-10.165122,0.0,0.0,0.0,0.0,0.0,0.0,0.0,0.0,0.0
1637019947823022997,66791,1637019947822616958,,0.0,0.0,0.0,0.0,-1.0,0.0,0.0,0.0,0.0,0.0,0.0,0.0,0.0,-0.0663225115758,0.01308996939,-0.0671951762018,0.0,0.0,0.0,0.0,0.0,0.0,0.0,0.0,0.0,-0.032373,-0.161865,-9.614781,0.0,0.0,0.0,0.0,0.0,0.0,0.0,0.0,0.0
1637019947842705046,66792,1637019947842594948,,0.0,0.0,0.0,0.0,-1.0,0.0,0.0,0.0,0.0,0.0,0.0,0.0,0.0,-0.0488692190558,0.000872664625997,-0.0453785605519,0.0,0.0,0.0,0.0,0.0,0.0,0.0,0.0,0.0,0.0,0.161865,-9.323424,0.0,0.0,0.0,0.0,0.0,0.0,0.0,0.0,0.0
1637019947862953245,66793,1637019947862688677,,0.0,0.0,0.0,0.0,-1.0,0.0,0.0,0.0,0.0,0.0,0.0,0.0,0.0,0.00436332312999,-0.0174532925199,0.0191986217719,0.0,0.0,0.0,0.0,0.0,0.0,0.0,0.0,0.0,-0.388476,0.226611,-9.355797,0.0,0.0,0.0,0.0,0.0,0.0,0.0,0.0,0.0
1637019947882794184,66794,1637019947882658378,,0.0,0.0,0.0,0.0,-1.0,0.0,0.0,0.0,0.0,0.0,0.0,0.0,0.0,0.0637045176978,-0.00436332312999,0.0584685299418,0.0,0.0,0.0,0.0,0.0,0.0,0.0,0.0,0.0,-0.064746,0.712206,-9.744273,0.0,0.0,0.0,0.0,0.0,0.0,0.0,0.0,0.0
1637019947902914024,66795,1637019947902617436,,0.0,0.0,0.0,0.0,-1.0,0.0,0.0,0.0,0.0,0.0,0.0,0.0,0.0,0.0,0.0226892802759,0.014835298642,0.0,0.0,0.0,0.0,0.0,0.0,0.0,0.0,0.0,0.712206,0.485595,-10.132749,0.0,0.0,0.0,0.0,0.0,0.0,0.0,0.0,0.0
1637019947922714533,66796,1637019947922564272,,0.0,0.0,0.0,0.0,-1.0,0.0,0.0,0.0,0.0,0.0,0.0,0.0,0.0,-0.0645771823238,-0.00261799387799,-0.0436332312999,0.0,0.0,0.0,0.0,0.0,0.0,0.0,0.0,0.0,-0.388476,-0.097119,-9.355797,0.0,0.0,0.0,0.0,0.0,0.0,0.0,0.0,0.0
1637019947942671472,66797,1637019947942532526,,0.0,0.0,0.0,0.0,-1.0,0.0,0.0,0.0,0.0,0.0,0.0,0.0,0.0,-0.00959931088597,0.00872664625997,-0.011344640138,0.0,0.0,0.0,0.0,0.0,0.0,0.0,0.0,0.0,0.194238,0.064746,-9.550035,0.0,0.0,0.0,0.0,0.0,0.0,0.0,0.0,0.0
1637019947962676598,66798,1637019947962556763,,0.0,0.0,0.0,0.0,-1.0,0.0,0.0,0.0,0.0,0.0,0.0,0.0,0.0,0.0497418836818,-0.00959931088597,0.013962634016,0.0,0.0,0.0,0.0,0.0,0.0,0.0,0.0,0.0,0.582714,0.615087,-9.679527,0.0,0.0,0.0,0.0,0.0,0.0,0.0,0.0,0.0
1637019947982759584,66799,1637019947982581977,,0.0,0.0,0.0,0.0,-1.0,0.0,0.0,0.0,0.0,0.0,0.0,0.0,0.0,0.0314159265359,-0.0235619449019,0.00698131700798,0.0,0.0,0.0,0.0,0.0,0.0,0.0,0.0,0.0,-0.420849,0.161865,-8.773083,0.0,0.0,0.0,0.0,0.0,0.0,0.0,0.0,0.0
1637019948002668042,66800,1637019948002568100,,0.0,0.0,0.0,0.0,-1.0,0.0,0.0,0.0,0.0,0.0,0.0,0.0,0.0,-0.0261799387799,0.00436332312999,0.00959931088597,0.0,0.0,0.0,0.0,0.0,0.0,0.0,0.0,0.0,-0.453222,0.0,-10.326987,0.0,0.0,0.0,0.0,0.0,0.0,0.0,0.0,0.0
1637019948022887314,66801,1637019948022604747,,0.0,0.0,0.0,0.0,-1.0,0.0,0.0,0.0,0.0,0.0,0.0,0.0,0.0,-0.0523598775598,0.011344640138,-0.0200712863979,0.0,0.0,0.0,0.0,0.0,0.0,0.0,0.0,0.0,0.64746,0.097119,-8.870202,0.0,0.0,0.0,0.0,0.0,0.0,0.0,0.0,0.0
1637019948042787013,66802,1637019948042621572,,0.0,0.0,0.0,0.0,-1.0,0.0,0.0,0.0,0.0,0.0,0.0,0.0,0.0,-0.0183259571459,-0.0209439510239,-0.0637045176978,0.0,0.0,0.0,0.0,0.0,0.0,0.0,0.0,0.0,0.0,0.550341,-9.323424,0.0,0.0,0.0,0.0,0.0,0.0,0.0,0.0,0.0
1637019948062768779,66803,1637019948062570917,,0.0,0.0,0.0,0.0,-1.0,0.0,0.0,0.0,0.0,0.0,0.0,0.0,0.0,0.0689405054538,0.0392699081699,0.0331612557879,0.0,0.0,0.0,0.0,0.0,0.0,0.0,0.0,0.0,-0.032373,0.388476,-9.970884,0.0,0.0,0.0,0.0,0.0,0.0,0.0,0.0,0.0
