%time,field.header.seq,field.header.stamp,field.header.frame_id,field.orientation.x,field.orientation.y,field.orientation.z,field.orientation.w,field.orientation_covariance0,field.orientation_covariance1,field.orientation_covariance2,field.orientation_covariance3,field.orientation_covariance4,field.orientation_covariance5,field.orientation_covariance6,field.orientation_covariance7,field.orientation_covariance8,field.angular_velocity.x,field.angular_velocity.y,field.angular_velocity.z,field.angular_velocity_covariance0,field.angular_velocity_covariance1,field.angular_velocity_covariance2,field.angular_velocity_covariance3,field.angular_velocity_covariance4,field.angular_velocity_covariance5,field.angular_velocity_covariance6,field.angular_velocity_covariance7,field.angular_velocity_covariance8,field.linear_acceleration.x,field.linear_acceleration.y,field.linear_acceleration.z,field.linear_acceleration_covariance0,field.linear_acceleration_covariance1,field.linear_acceleration_covariance2,field.linear_acceleration_covariance3,field.linear_acceleration_covariance4,field.linear_acceleration_covariance5,field.linear_acceleration_covariance6,field.linear_acceleration_covariance7,field.linear_acceleration_covariance8
1636487978788456882,32471,1636487978787655087,,0.0,0.0,0.0,0.0,-1.0,0.0,0.0,0.0,0.0,0.0,0.0,0.0,0.0,0.0,0.010471975512,-0.00174532925199,0.0,0.0,0.0,0.0,0.0,0.0,0.0,0.0,0.0,0.194238,0.129492,-9.679527,0.0,0.0,0.0,0.0,0.0,0.0,0.0,0.0,0.0
1636487978810046982,32472,1636487978808511245,,0.0,0.0,0.0,0.0,-1.0,0.0,0.0,0.0,0.0,0.0,0.0,0.0,0.0,0.00261799387799,0.0,-0.00261799387799,0.0,0.0,0.0,0.0,0.0,0.0,0.0,0.0,0.0,0.161865,0.420849,-9.582408,0.0,0.0,0.0,0.0,0.0,0.0,0.0,0.0,0.0
1636487978831130233,32473,1636487978828869823,,0.0,0.0,0.0,0.0,-1.0,0.0,0.0,0.0,0.0,0.0,0.0,0.0,0.0,-0.00523598775598,0.00785398163397,-0.010471975512,0.0,0.0,0.0,0.0,0.0,0.0,0.0,0.0,0.0,0.226611,0.064746,-9.7119,0.0,0.0,0.0,0.0,0.0,0.0,0.0,0.0,0.0
1636487978849872711,32474,1636487978848796391,,0.0,0.0,0.0,0.0,-1.0,0.0,0.0,0.0,0.0,0.0,0.0,0.0,0.0,-0.012217304764,0.01308996939,-0.00698131700798,0.0,0.0,0.0,0.0,0.0,0.0,0.0,0.0,0.0,0.226611,0.291357,-9.582408,0.0,0.0,0.0,0.0,0.0,0.0,0.0,0.0,0.0
1636487978870239683,32475,1636487978869010526,,0.0,0.0,0.0,0.0,-1.0,0.0,0.0,0.0,0.0,0.0,0.0,0.0,0.0,-0.00174532925199,-0.00174532925199,0.00174532925199,0.0,0.0,0.0,0.0,0.0,0.0,0.0,0.0,0.0,0.291357,0.064746,-9.550035,0.0,0.0,0.0,0.0,0.0,0.0,0.0,0.0,0.0
1636487978890169948,32476,1636487978889205229,,0.0,0.0,0.0,0.0,-1.0,0.0,0.0,0.0,0.0,0.0,0.0,0.0,0.0,-0.00785398163397,0.00174532925199,-0.013962634016,0.0,0.0,0.0,0.0,0.0,0.0,0.0,0.0,0.0,0.097119,0.161865,-9.517662,0.0,0.0,0.0,0.0,0.0,0.0,0.0,0.0,0.0
1636487978909417882,32477,1636487978908566238,,0.0,0.0,0.0,0.0,-1.0,0.0,0.0,0.0,0.0,0.0,0.0,0.0,0.0,0.000872664625997,0.010471975512,-0.00523598775598,0.0,0.0,0.0,0.0,0.0,0.0,0.0,0.0,0.0,0.129492,0.291357,-9.582408,0.0,0.0,0.0,0.0,0.0,0.0,0.0,0.0,0.0
1636487978934363510,32478,1636487978928366952,,0.0,0.0,0.0,0.0,-1.0,0.0,0.0,0.0,0.0,0.0,0.0,0.0,0.0,-0.00698131700798,0.00698131700798,-0.00436332312999,0.0,0.0,0.0,0.0,0.0,0.0,0.0,0.0,0.0,0.388476,0.129492,-9.744273,0.0,0.0,0.0,0.0,0.0,0.0,0.0,0.0,0.0
1636487978949926507,32479,1636487978948894735,,0.0,0.0,0.0,0.0,-1.0,0.0,0.0,0.0,0.0,0.0,0.0,0.0,0.0,0.00436332312999,0.00698131700798,-0.00698131700798,0.0,0.0,0.0,0.0,0.0,0.0,0.0,0.0,0.0,0.097119,0.194238,-9.614781,0.0,0.0,0.0,0.0,0.0,0.0,0.0,0.0,0.0
1636487978971873241,32480,1636487978968762711,,0.0,0.0,0.0,0.0,-1.0,0.0,0.0,0.0,0.0,0.0,0.0,0.0,0.0,0.0,0.00785398163397,-0.00785398163397,0.0,0.0,0.0,0.0,0.0,0.0,0.0,0.0,0.0,0.194238,0.129492,-9.647154,0.0,0.0,0.0,0.0,0.0,0.0,0.0,0.0,0.0
1636487978989355827,32481,1636487978988454031,,0.0,0.0,0.0,0.0,-1.0,0.0,0.0,0.0,0.0,0.0,0.0,0.0,0.0,-0.00349065850399,0.0,-0.00959931088597,0.0,0.0,0.0,0.0,0.0,0.0,0.0,0.0,0.0,0.161865,0.097119,-9.647154,0.0,0.0,0.0,0.0,0.0,0.0,0.0,0.0,0.0
1636487979009737225,32482,1636487979008790190,,0.0,0.0,0.0,0.0,-1.0,0.0,0.0,0.0,0.0,0.0,0.0,0.0,0.0,0.000872664625997,0.00610865238198,-0.00436332312999,0.0,0.0,0.0,0.0,0.0,0.0,0.0,0.0,0.0,0.226611,0.258984,-9.647154,0.0,0.0,0.0,0.0,0.0,0.0,0.0,0.0,0.0
1636487979029085426,32483,1636487979028446934,,0.0,0.0,0.0,0.0,-1.0,0.0,0.0,0.0,0.0,0.0,0.0,0.0,0.0,-0.00349065850399,0.00698131700798,-0.00436332312999,0.0,0.0,0.0,0.0,0.0,0.0,0.0,0.0,0.0,0.226611,0.064746,-9.582408,0.0,0.0,0.0,0.0,0.0,0.0,0.0,0.0,0.0
1636487979051627500,32484,1636487979048747556,,0.0,0.0,0.0,0.0,-1.0,0.0,0.0,0.0,0.0,0.0,0.0,0.0,0.0,0.00785398163397,0.013962634016,-0.011344640138,0.0,0.0,0.0,0.0,0.0,0.0,0.0,0.0,0.0,0.032373,0.161865,-9.614781,0.0,0.0,0.0,0.0,0.0,0.0,0.0,0.0,0.0
1636487979071077766,32485,1636487979068770203,,0.0,0.0,0.0,0.0,-1.0,0.0,0.0,0.0,0.0,0.0,0.0,0.0,0.0,0.00523598775598,0.00959931088597,-0.000872664625997,0.0,0.0,0.0,0.0,0.0,0.0,0.0,0.0,0.0,0.194238,0.064746,-9.679527,0.0,0.0,0.0,0.0,0.0,0.0,0.0,0.0,0.0
1636487979092717456,32486,1636487979088685449,,0.0,0.0,0.0,0.0,-1.0,0.0,0.0,0.0,0.0,0.0,0.0,0.0,0.0,0.00785398163397,0.00872664625997,-0.00349065850399,0.0,0.0,0.0,0.0,0.0,0.0,0.0,0.0,0.0,0.161865,0.129492,-9.614781,0.0,0.0,0.0,0.0,0.0,0.0,0.0,0.0,0.0
1636487979110855166,32487,1636487979108492705,,0.0,0.0,0.0,0.0,-1.0,0.0,0.0,0.0,0.0,0.0,0.0,0.0,0.0,-0.00523598775598,0.0165806278939,-0.00523598775598,0.0,0.0,0.0,0.0,0.0,0.0,0.0,0.0,0.0,0.129492,0.064746,-9.485289,0.0,0.0,0.0,0.0,0.0,0.0,0.0,0.0,0.0
1636487979130773890,32488,1636487979128370820,,0.0,0.0,0.0,0.0,-1.0,0.0,0.0,0.0,0.0,0.0,0.0,0.0,0.0,0.00261799387799,0.0,-0.010471975512,0.0,0.0,0.0,0.0,0.0,0.0,0.0,0.0,0.0,0.291357,0.097119,-9.679527,0.0,0.0,0.0,0.0,0.0,0.0,0.0,0.0,0.0
1636487979152669259,32489,1636487979148759433,,0.0,0.0,0.0,0.0,-1.0,0.0,0.0,0.0,0.0,0.0,0.0,0.0,0.0,0.0,0.00436332312999,-0.000872664625997,0.0,0.0,0.0,0.0,0.0,0.0,0.0,0.0,0.0,0.0,0.161865,-9.7119,0.0,0.0,0.0,0.0,0.0,0.0,0.0,0.0,0.0
1636487979170934941,32490,1636487979168841964,,0.0,0.0,0.0,0.0,-1.0,0.0,0.0,0.0,0.0,0.0,0.0,0.0,0.0,-0.00610865238198,0.00698131700798,-0.00698131700798,0.0,0.0,0.0,0.0,0.0,0.0,0.0,0.0,0.0,0.097119,0.194238,-9.582408,0.0,0.0,0.0,0.0,0.0,0.0,0.0,0.0,0.0
1636487979193085765,32491,1636487979189275428,,0.0,0.0,0.0,0.0,-1.0,0.0,0.0,0.0,0.0,0.0,0.0,0.0,0.0,-0.00698131700798,0.00698131700798,-0.00872664625997,0.0,0.0,0.0,0.0,0.0,0.0,0.0,0.0,0.0,0.161865,0.194238,-9.550035,0.0,0.0,0.0,0.0,0.0,0.0,0.0,0.0,0.0
1636487979212715362,32492,1636487979208954306,,0.0,0.0,0.0,0.0,-1.0,0.0,0.0,0.0,0.0,0.0,0.0,0.0,0.0,-0.00261799387799,-0.00174532925199,-0.013962634016,0.0,0.0,0.0,0.0,0.0,0.0,0.0,0.0,0.0,0.097119,0.129492,-9.485289,0.0,0.0,0.0,0.0,0.0,0.0,0.0,0.0,0.0
1636487979232154720,32493,1636487979228559209,,0.0,0.0,0.0,0.0,-1.0,0.0,0.0,0.0,0.0,0.0,0.0,0.0,0.0,-0.00523598775598,0.00349065850399,-0.00349065850399,0.0,0.0,0.0,0.0,0.0,0.0,0.0,0.0,0.0,0.194238,0.064746,-9.647154,0.0,0.0,0.0,0.0,0.0,0.0,0.0,0.0,0.0
1636487979251363194,32494,1636487979248797952,,0.0,0.0,0.0,0.0,-1.0,0.0,0.0,0.0,0.0,0.0,0.0,0.0,0.0,0.00523598775598,0.00261799387799,-0.00872664625997,0.0,0.0,0.0,0.0,0.0,0.0,0.0,0.0,0.0,0.129492,0.161865,-9.582408,0.0,0.0,0.0,0.0,0.0,0.0,0.0,0.0,0.0
1636487979272981378,32495,1636487979268859801,,0.0,0.0,0.0,0.0,-1.0,0.0,0.0,0.0,0.0,0.0,0.0,0.0,0.0,-0.00174532925199,0.00261799387799,-0.00610865238198,0.0,0.0,0.0,0.0,0.0,0.0,0.0,0.0,0.0,0.161865,0.129492,-9.647154,0.0,0.0,0.0,0.0,0.0,0.0,0.0,0.0,0.0
1636487979292825796,32496,1636487979288733212,,0.0,0.0,0.0,0.0,-1.0,0.0,0.0,0.0,0.0,0.0,0.0,0.0,0.0,-0.00174532925199,0.00523598775598,-0.010471975512,0.0,0.0,0.0,0.0,0.0,0.0,0.0,0.0,0.0,0.064746,0.161865,-9.647154,0.0,0.0,0.0,0.0,0.0,0.0,0.0,0.0,0.0
1636487979311847776,32497,1636487979308763547,,0.0,0.0,0.0,0.0,-1.0,0.0,0.0,0.0,0.0,0.0,0.0,0.0,0.0,-0.00523598775598,0.00523598775598,-0.00872664625997,0.0,0.0,0.0,0.0,0.0,0.0,0.0,0.0,0.0,0.129492,0.097119,-9.582408,0.0,0.0,0.0,0.0,0.0,0.0,0.0,0.0,0.0
1636487979331794486,32498,1636487979328886295,,0.0,0.0,0.0,0.0,-1.0,0.0,0.0,0.0,0.0,0.0,0.0,0.0,0.0,-0.011344640138,-0.00261799387799,-0.00436332312999,0.0,0.0,0.0,0.0,0.0,0.0,0.0,0.0,0.0,0.161865,0.129492,-9.7119,0.0,0.0,0.0,0.0,0.0,0.0,0.0,0.0,0.0
1636487979352070764,32499,1636487979348798006,,0.0,0.0,0.0,0.0,-1.0,0.0,0.0,0.0,0.0,0.0,0.0,0.0,0.0,0.000872664625997,0.0,-0.00698131700798,0.0,0.0,0.0,0.0,0.0,0.0,0.0,0.0,0.0,0.161865,0.161865,-9.647154,0.0,0.0,0.0,0.0,0.0,0.0,0.0,0.0,0.0
1636487979372700812,32500,1636487979368782674,,0.0,0.0,0.0,0.0,-1.0,0.0,0.0,0.0,0.0,0.0,0.0,0.0,0.0,-0.00174532925199,0.00349065850399,-0.00698131700798,0.0,0.0,0.0,0.0,0.0,0.0,0.0,0.0,0.0,0.064746,0.097119,-9.647154,0.0,0.0,0.0,0.0,0.0,0.0,0.0,0.0,0.0
1636487979392971310,32501,1636487979388691184,,0.0,0.0,0.0,0.0,-1.0,0.0,0.0,0.0,0.0,0.0,0.0,0.0,0.0,0.00698131700798,-0.00436332312999,-0.013962634016,0.0,0.0,0.0,0.0,0.0,0.0,0.0,0.0,0.0,0.194238,0.129492,-9.679527,0.0,0.0,0.0,0.0,0.0,0.0,0.0,0.0,0.0
1636487979412560948,32502,1636487979409020902,,0.0,0.0,0.0,0.0,-1.0,0.0,0.0,0.0,0.0,0.0,0.0,0.0,0.0,-0.00698131700798,0.00174532925199,-0.00349065850399,0.0,0.0,0.0,0.0,0.0,0.0,0.0,0.0,0.0,0.194238,0.129492,-9.614781,0.0,0.0,0.0,0.0,0.0,0.0,0.0,0.0,0.0
1636487979429169472,32503,1636487979428471939,,0.0,0.0,0.0,0.0,-1.0,0.0,0.0,0.0,0.0,0.0,0.0,0.0,0.0,0.00349065850399,0.00436332312999,-0.00349065850399,0.0,0.0,0.0,0.0,0.0,0.0,0.0,0.0,0.0,0.129492,0.129492,-9.647154,0.0,0.0,0.0,0.0,0.0,0.0,0.0,0.0,0.0
1636487979450813763,32504,1636487979448778189,,0.0,0.0,0.0,0.0,-1.0,0.0,0.0,0.0,0.0,0.0,0.0,0.0,0.0,0.0,0.00785398163397,-0.00872664625997,0.0,0.0,0.0,0.0,0.0,0.0,0.0,0.0,0.0,0.420849,0.129492,-9.582408,0.0,0.0,0.0,0.0,0.0,0.0,0.0,0.0,0.0
1636487979472268481,32505,1636487979469083001,,0.0,0.0,0.0,0.0,-1.0,0.0,0.0,0.0,0.0,0.0,0.0,0.0,0.0,0.000872664625997,0.00959931088597,-0.00261799387799,0.0,0.0,0.0,0.0,0.0,0.0,0.0,0.0,0.0,0.161865,0.161865,-9.582408,0.0,0.0,0.0,0.0,0.0,0.0,0.0,0.0,0.0
1636487979492507184,32506,1636487979488527992,,0.0,0.0,0.0,0.0,-1.0,0.0,0.0,0.0,0.0,0.0,0.0,0.0,0.0,0.00174532925199,0.00959931088597,-0.00436332312999,0.0,0.0,0.0,0.0,0.0,0.0,0.0,0.0,0.0,0.0,0.161865,-9.485289,0.0,0.0,0.0,0.0,0.0,0.0,0.0,0.0,0.0
1636487979512255677,32507,1636487979508850591,,0.0,0.0,0.0,0.0,-1.0,0.0,0.0,0.0,0.0,0.0,0.0,0.0,0.0,0.00349065850399,0.00698131700798,-0.00872664625997,0.0,0.0,0.0,0.0,0.0,0.0,0.0,0.0,0.0,0.064746,0.161865,-9.614781,0.0,0.0,0.0,0.0,0.0,0.0,0.0,0.0,0.0
1636487979530628449,32508,1636487979528540365,,0.0,0.0,0.0,0.0,-1.0,0.0,0.0,0.0,0.0,0.0,0.0,0.0,0.0,-0.00349065850399,0.00872664625997,-0.00610865238198,0.0,0.0,0.0,0.0,0.0,0.0,0.0,0.0,0.0,0.129492,0.161865,-9.582408,0.0,0.0,0.0,0.0,0.0,0.0,0.0,0.0,0.0
1636487979550566804,32509,1636487979548903995,,0.0,0.0,0.0,0.0,-1.0,0.0,0.0,0.0,0.0,0.0,0.0,0.0,0.0,-0.000872664625997,-0.00174532925199,-0.00261799387799,0.0,0.0,0.0,0.0,0.0,0.0,0.0,0.0,0.0,0.161865,0.064746,-9.614781,0.0,0.0,0.0,0.0,0.0,0.0,0.0,0.0,0.0
1636487979571271912,32510,1636487979568832618,,0.0,0.0,0.0,0.0,-1.0,0.0,0.0,0.0,0.0,0.0,0.0,0.0,0.0,0.00174532925199,0.00872664625997,-0.011344640138,0.0,0.0,0.0,0.0,0.0,0.0,0.0,0.0,0.0,0.226611,0.129492,-9.679527,0.0,0.0,0.0,0.0,0.0,0.0,0.0,0.0,0.0
1636487979591151161,32511,1636487979588777984,,0.0,0.0,0.0,0.0,-1.0,0.0,0.0,0.0,0.0,0.0,0.0,0.0,0.0,-0.00261799387799,0.00959931088597,0.00349065850399,0.0,0.0,0.0,0.0,0.0,0.0,0.0,0.0,0.0,0.291357,0.032373,-9.550035,0.0,0.0,0.0,0.0,0.0,0.0,0.0,0.0,0.0
1636487979612397250,32512,1636487979608387153,,0.0,0.0,0.0,0.0,-1.0,0.0,0.0,0.0,0.0,0.0,0.0,0.0,0.0,-0.00959931088597,0.00785398163397,0.00261799387799,0.0,0.0,0.0,0.0,0.0,0.0,0.0,0.0,0.0,0.129492,0.097119,-9.614781,0.0,0.0,0.0,0.0,0.0,0.0,0.0,0.0,0.0
1636487979630016156,32513,1636487979628460394,,0.0,0.0,0.0,0.0,-1.0,0.0,0.0,0.0,0.0,0.0,0.0,0.0,0.0,0.00174532925199,-0.00349065850399,-0.01308996939,0.0,0.0,0.0,0.0,0.0,0.0,0.0,0.0,0.0,0.194238,0.129492,-9.809019,0.0,0.0,0.0,0.0,0.0,0.0,0.0,0.0,0.0
1636487979650461362,32514,1636487979648491535,,0.0,0.0,0.0,0.0,-1.0,0.0,0.0,0.0,0.0,0.0,0.0,0.0,0.0,-0.00261799387799,0.00436332312999,-0.00698131700798,0.0,0.0,0.0,0.0,0.0,0.0,0.0,0.0,0.0,0.161865,0.129492,-9.582408,0.0,0.0,0.0,0.0,0.0,0.0,0.0,0.0,0.0
1636487979672094445,32515,1636487979668649261,,0.0,0.0,0.0,0.0,-1.0,0.0,0.0,0.0,0.0,0.0,0.0,0.0,0.0,0.00349065850399,0.000872664625997,-0.011344640138,0.0,0.0,0.0,0.0,0.0,0.0,0.0,0.0,0.0,0.194238,0.194238,-9.744273,0.0,0.0,0.0,0.0,0.0,0.0,0.0,0.0,0.0
1636487979691814776,32516,1636487979688527802,,0.0,0.0,0.0,0.0,-1.0,0.0,0.0,0.0,0.0,0.0,0.0,0.0,0.0,0.00261799387799,0.00261799387799,-0.00523598775598,0.0,0.0,0.0,0.0,0.0,0.0,0.0,0.0,0.0,0.226611,0.161865,-9.841392,0.0,0.0,0.0,0.0,0.0,0.0,0.0,0.0,0.0
1636487979709350501,32517,1636487979708423133,,0.0,0.0,0.0,0.0,-1.0,0.0,0.0,0.0,0.0,0.0,0.0,0.0,0.0,0.00523598775598,-0.000872664625997,-0.011344640138,0.0,0.0,0.0,0.0,0.0,0.0,0.0,0.0,0.0,0.226611,0.258984,-9.647154,0.0,0.0,0.0,0.0,0.0,0.0,0.0,0.0,0.0
1636487979731605931,32518,1636487979728880358,,0.0,0.0,0.0,0.0,-1.0,0.0,0.0,0.0,0.0,0.0,0.0,0.0,0.0,-0.00261799387799,0.010471975512,-0.00523598775598,0.0,0.0,0.0,0.0,0.0,0.0,0.0,0.0,0.0,0.161865,0.129492,-9.647154,0.0,0.0,0.0,0.0,0.0,0.0,0.0,0.0,0.0
1636487979749916572,32519,1636487979748576419,,0.0,0.0,0.0,0.0,-1.0,0.0,0.0,0.0,0.0,0.0,0.0,0.0,0.0,-0.00261799387799,0.00698131700798,-0.00436332312999,0.0,0.0,0.0,0.0,0.0,0.0,0.0,0.0,0.0,0.161865,0.194238,-9.582408,0.0,0.0,0.0,0.0,0.0,0.0,0.0,0.0,0.0
1636487979773088542,32520,1636487979768954741,,0.0,0.0,0.0,0.0,-1.0,0.0,0.0,0.0,0.0,0.0,0.0,0.0,0.0,-0.00261799387799,0.00349065850399,-0.00698131700798,0.0,0.0,0.0,0.0,0.0,0.0,0.0,0.0,0.0,0.161865,0.129492,-9.614781,0.0,0.0,0.0,0.0,0.0,0.0,0.0,0.0,0.0
1636487979791318003,32521,1636487979788472575,,0.0,0.0,0.0,0.0,-1.0,0.0,0.0,0.0,0.0,0.0,0.0,0.0,0.0,-0.00261799387799,0.00610865238198,0.0,0.0,0.0,0.0,0.0,0.0,0.0,0.0,0.0,0.0,0.129492,0.129492,-9.614781,0.0,0.0,0.0,0.0,0.0,0.0,0.0,0.0,0.0
1636487979810143317,32522,1636487979808497062,,0.0,0.0,0.0,0.0,-1.0,0.0,0.0,0.0,0.0,0.0,0.0,0.0,0.0,-0.00174532925199,0.00174532925199,0.00174532925199,0.0,0.0,0.0,0.0,0.0,0.0,0.0,0.0,0.0,0.194238,0.32373,-9.485289,0.0,0.0,0.0,0.0,0.0,0.0,0.0,0.0,0.0
1636487979830990820,32523,1636487979828732930,,0.0,0.0,0.0,0.0,-1.0,0.0,0.0,0.0,0.0,0.0,0.0,0.0,0.0,0.000872664625997,0.00610865238198,-0.0174532925199,0.0,0.0,0.0,0.0,0.0,0.0,0.0,0.0,0.0,0.194238,0.032373,-9.647154,0.0,0.0,0.0,0.0,0.0,0.0,0.0,0.0,0.0
1636487979850472526,32524,1636487979849032778,,0.0,0.0,0.0,0.0,-1.0,0.0,0.0,0.0,0.0,0.0,0.0,0.0,0.0,-0.00349065850399,0.00261799387799,-0.00698131700798,0.0,0.0,0.0,0.0,0.0,0.0,0.0,0.0,0.0,0.097119,0.129492,-9.582408,0.0,0.0,0.0,0.0,0.0,0.0,0.0,0.0,0.0
1636487979872105322,32525,1636487979868860168,,0.0,0.0,0.0,0.0,-1.0,0.0,0.0,0.0,0.0,0.0,0.0,0.0,0.0,0.000872664625997,0.00523598775598,-0.00436332312999,0.0,0.0,0.0,0.0,0.0,0.0,0.0,0.0,0.0,0.194238,0.258984,-9.485289,0.0,0.0,0.0,0.0,0.0,0.0,0.0,0.0,0.0
1636487979889697615,32526,1636487979888873262,,0.0,0.0,0.0,0.0,-1.0,0.0,0.0,0.0,0.0,0.0,0.0,0.0,0.0,-0.00261799387799,0.00785398163397,-0.012217304764,0.0,0.0,0.0,0.0,0.0,0.0,0.0,0.0,0.0,0.097119,0.291357,-9.614781,0.0,0.0,0.0,0.0,0.0,0.0,0.0,0.0,0.0
1636487979911336290,32527,1636487979908550851,,0.0,0.0,0.0,0.0,-1.0,0.0,0.0,0.0,0.0,0.0,0.0,0.0,0.0,0.00349065850399,0.00523598775598,-0.00610865238198,0.0,0.0,0.0,0.0,0.0,0.0,0.0,0.0,0.0,0.161865,0.161865,-9.647154,0.0,0.0,0.0,0.0,0.0,0.0,0.0,0.0,0.0
1636487979932863691,32528,1636487979929024920,,0.0,0.0,0.0,0.0,-1.0,0.0,0.0,0.0,0.0,0.0,0.0,0.0,0.0,0.00698131700798,0.00174532925199,-0.00698131700798,0.0,0.0,0.0,0.0,0.0,0.0,0.0,0.0,0.0,0.194238,0.161865,-9.614781,0.0,0.0,0.0,0.0,0.0,0.0,0.0,0.0,0.0
1636487979952176527,32529,1636487979948787280,,0.0,0.0,0.0,0.0,-1.0,0.0,0.0,0.0,0.0,0.0,0.0,0.0,0.0,-0.00959931088597,0.012217304764,-0.00698131700798,0.0,0.0,0.0,0.0,0.0,0.0,0.0,0.0,0.0,0.194238,0.129492,-9.647154,0.0,0.0,0.0,0.0,0.0,0.0,0.0,0.0,0.0
1636487979973028485,32530,1636487979969130168,,0.0,0.0,0.0,0.0,-1.0,0.0,0.0,0.0,0.0,0.0,0.0,0.0,0.0,0.000872664625997,-0.000872664625997,-0.00174532925199,0.0,0.0,0.0,0.0,0.0,0.0,0.0,0.0,0.0,0.161865,0.226611,-9.582408,0.0,0.0,0.0,0.0,0.0,0.0,0.0,0.0,0.0
1636487979989649963,32531,1636487979988785022,,0.0,0.0,0.0,0.0,-1.0,0.0,0.0,0.0,0.0,0.0,0.0,0.0,0.0,-0.000872664625997,0.00610865238198,-0.00959931088597,0.0,0.0,0.0,0.0,0.0,0.0,0.0,0.0,0.0,0.291357,0.097119,-9.614781,0.0,0.0,0.0,0.0,0.0,0.0,0.0,0.0,0.0
1636487980012571243,32532,1636487980008777154,,0.0,0.0,0.0,0.0,-1.0,0.0,0.0,0.0,0.0,0.0,0.0,0.0,0.0,0.00610865238198,0.011344640138,-0.00523598775598,0.0,0.0,0.0,0.0,0.0,0.0,0.0,0.0,0.0,0.161865,0.129492,-9.517662,0.0,0.0,0.0,0.0,0.0,0.0,0.0,0.0,0.0
1636487980031299285,32533,1636487980028589555,,0.0,0.0,0.0,0.0,-1.0,0.0,0.0,0.0,0.0,0.0,0.0,0.0,0.0,0.00261799387799,0.00872664625997,-0.00349065850399,0.0,0.0,0.0,0.0,0.0,0.0,0.0,0.0,0.0,0.161865,0.032373,-9.550035,0.0,0.0,0.0,0.0,0.0,0.0,0.0,0.0,0.0
1636487980049726889,32534,1636487980048958793,,0.0,0.0,0.0,0.0,-1.0,0.0,0.0,0.0,0.0,0.0,0.0,0.0,0.0,-0.00174532925199,0.000872664625997,0.00261799387799,0.0,0.0,0.0,0.0,0.0,0.0,0.0,0.0,0.0,0.129492,0.097119,-9.679527,0.0,0.0,0.0,0.0,0.0,0.0,0.0,0.0,0.0
1636487980070955679,32535,1636487980068775764,,0.0,0.0,0.0,0.0,-1.0,0.0,0.0,0.0,0.0,0.0,0.0,0.0,0.0,-0.00959931088597,0.00698131700798,-0.00436332312999,0.0,0.0,0.0,0.0,0.0,0.0,0.0,0.0,0.0,0.161865,0.097119,-9.614781,0.0,0.0,0.0,0.0,0.0,0.0,0.0,0.0,0.0
1636487980089405094,32536,1636487980088876772,,0.0,0.0,0.0,0.0,-1.0,0.0,0.0,0.0,0.0,0.0,0.0,0.0,0.0,0.010471975512,0.013962634016,-0.00872664625997,0.0,0.0,0.0,0.0,0.0,0.0,0.0,0.0,0.0,0.161865,0.064746,-9.614781,0.0,0.0,0.0,0.0,0.0,0.0,0.0,0.0,0.0
1636487980111676127,32537,1636487980108453200,,0.0,0.0,0.0,0.0,-1.0,0.0,0.0,0.0,0.0,0.0,0.0,0.0,0.0,0.00174532925199,0.00261799387799,-0.00872664625997,0.0,0.0,0.0,0.0,0.0,0.0,0.0,0.0,0.0,0.097119,0.097119,-9.614781,0.0,0.0,0.0,0.0,0.0,0.0,0.0,0.0,0.0
1636487980131046568,32538,1636487980128547624,,0.0,0.0,0.0,0.0,-1.0,0.0,0.0,0.0,0.0,0.0,0.0,0.0,0.0,0.0,0.00959931088597,-0.00785398163397,0.0,0.0,0.0,0.0,0.0,0.0,0.0,0.0,0.0,0.161865,0.161865,-9.614781,0.0,0.0,0.0,0.0,0.0,0.0,0.0,0.0,0.0
1636487980152932864,32539,1636487980149167118,,0.0,0.0,0.0,0.0,-1.0,0.0,0.0,0.0,0.0,0.0,0.0,0.0,0.0,-0.00523598775598,0.00785398163397,-0.00959931088597,0.0,0.0,0.0,0.0,0.0,0.0,0.0,0.0,0.0,0.032373,0.226611,-9.582408,0.0,0.0,0.0,0.0,0.0,0.0,0.0,0.0,0.0
1636487980171844122,32540,1636487980168868065,,0.0,0.0,0.0,0.0,-1.0,0.0,0.0,0.0,0.0,0.0,0.0,0.0,0.0,-0.00872664625997,0.00261799387799,-0.00698131700798,0.0,0.0,0.0,0.0,0.0,0.0,0.0,0.0,0.0,0.161865,0.161865,-9.614781,0.0,0.0,0.0,0.0,0.0,0.0,0.0,0.0,0.0
1636487980190696895,32541,1636487980188383193,,0.0,0.0,0.0,0.0,-1.0,0.0,0.0,0.0,0.0,0.0,0.0,0.0,0.0,-0.00349065850399,0.00785398163397,-0.00261799387799,0.0,0.0,0.0,0.0,0.0,0.0,0.0,0.0,0.0,0.226611,0.032373,-9.679527,0.0,0.0,0.0,0.0,0.0,0.0,0.0,0.0,0.0
1636487980211022967,32542,1636487980208540152,,0.0,0.0,0.0,0.0,-1.0,0.0,0.0,0.0,0.0,0.0,0.0,0.0,0.0,0.0,-0.00610865238198,-0.00872664625997,0.0,0.0,0.0,0.0,0.0,0.0,0.0,0.0,0.0,0.161865,0.032373,-9.647154,0.0,0.0,0.0,0.0,0.0,0.0,0.0,0.0,0.0
1636487980232882344,32543,1636487980228758782,,0.0,0.0,0.0,0.0,-1.0,0.0,0.0,0.0,0.0,0.0,0.0,0.0,0.0,-0.00610865238198,0.00610865238198,-0.00349065850399,0.0,0.0,0.0,0.0,0.0,0.0,0.0,0.0,0.0,0.129492,0.161865,-9.582408,0.0,0.0,0.0,0.0,0.0,0.0,0.0,0.0,0.0
1636487980252253628,32544,1636487980248651189,,0.0,0.0,0.0,0.0,-1.0,0.0,0.0,0.0,0.0,0.0,0.0,0.0,0.0,0.0,0.014835298642,-0.0174532925199,0.0,0.0,0.0,0.0,0.0,0.0,0.0,0.0,0.0,0.194238,0.161865,-9.582408,0.0,0.0,0.0,0.0,0.0,0.0,0.0,0.0,0.0
1636487980273705578,32545,1636487980268938445,,0.0,0.0,0.0,0.0,-1.0,0.0,0.0,0.0,0.0,0.0,0.0,0.0,0.0,-0.00523598775598,0.00523598775598,-0.010471975512,0.0,0.0,0.0,0.0,0.0,0.0,0.0,0.0,0.0,0.194238,0.129492,-9.614781,0.0,0.0,0.0,0.0,0.0,0.0,0.0,0.0,0.0
1636487980293224930,32546,1636487980288645676,,0.0,0.0,0.0,0.0,-1.0,0.0,0.0,0.0,0.0,0.0,0.0,0.0,0.0,-0.000872664625997,0.00610865238198,-0.000872664625997,0.0,0.0,0.0,0.0,0.0,0.0,0.0,0.0,0.0,0.161865,0.161865,-9.582408,0.0,0.0,0.0,0.0,0.0,0.0,0.0,0.0,0.0
1636487980312088029,32547,1636487980308737815,,0.0,0.0,0.0,0.0,-1.0,0.0,0.0,0.0,0.0,0.0,0.0,0.0,0.0,-0.00959931088597,0.00610865238198,-0.00174532925199,0.0,0.0,0.0,0.0,0.0,0.0,0.0,0.0,0.0,0.129492,0.258984,-9.647154,0.0,0.0,0.0,0.0,0.0,0.0,0.0,0.0,0.0
1636487980332184323,32548,1636487980328426237,,0.0,0.0,0.0,0.0,-1.0,0.0,0.0,0.0,0.0,0.0,0.0,0.0,0.0,-0.00523598775598,-0.00174532925199,-0.00523598775598,0.0,0.0,0.0,0.0,0.0,0.0,0.0,0.0,0.0,0.32373,0.064746,-9.647154,0.0,0.0,0.0,0.0,0.0,0.0,0.0,0.0,0.0
1636487980358103462,32549,1636487980349509280,,0.0,0.0,0.0,0.0,-1.0,0.0,0.0,0.0,0.0,0.0,0.0,0.0,0.0,0.00349065850399,0.00523598775598,-0.00174532925199,0.0,0.0,0.0,0.0,0.0,0.0,0.0,0.0,0.0,0.226611,0.161865,-9.679527,0.0,0.0,0.0,0.0,0.0,0.0,0.0,0.0,0.0
1636487980371560771,32550,1636487980368445030,,0.0,0.0,0.0,0.0,-1.0,0.0,0.0,0.0,0.0,0.0,0.0,0.0,0.0,0.00261799387799,0.000872664625997,-0.00261799387799,0.0,0.0,0.0,0.0,0.0,0.0,0.0,0.0,0.0,0.194238,0.161865,-9.647154,0.0,0.0,0.0,0.0,0.0,0.0,0.0,0.0,0.0
1636487980391400964,32551,1636487980388563548,,0.0,0.0,0.0,0.0,-1.0,0.0,0.0,0.0,0.0,0.0,0.0,0.0,0.0,0.00436332312999,0.00261799387799,-0.010471975512,0.0,0.0,0.0,0.0,0.0,0.0,0.0,0.0,0.0,0.226611,0.032373,-9.679527,0.0,0.0,0.0,0.0,0.0,0.0,0.0,0.0,0.0
1636487980409814929,32552,1636487980408556009,,0.0,0.0,0.0,0.0,-1.0,0.0,0.0,0.0,0.0,0.0,0.0,0.0,0.0,0.00349065850399,0.000872664625997,-0.00174532925199,0.0,0.0,0.0,0.0,0.0,0.0,0.0,0.0,0.0,0.194238,0.161865,-9.647154,0.0,0.0,0.0,0.0,0.0,0.0,0.0,0.0,0.0
1636487980433139529,32553,1636487980428562119,,0.0,0.0,0.0,0.0,-1.0,0.0,0.0,0.0,0.0,0.0,0.0,0.0,0.0,-0.00349065850399,0.00261799387799,-0.01308996939,0.0,0.0,0.0,0.0,0.0,0.0,0.0,0.0,0.0,0.194238,0.129492,-9.582408,0.0,0.0,0.0,0.0,0.0,0.0,0.0,0.0,0.0
1636487980448709143,32554,1636487980448040771,,0.0,0.0,0.0,0.0,-1.0,0.0,0.0,0.0,0.0,0.0,0.0,0.0,0.0,-0.00349065850399,0.00610865238198,-0.00436332312999,0.0,0.0,0.0,0.0,0.0,0.0,0.0,0.0,0.0,0.129492,0.161865,-9.582408,0.0,0.0,0.0,0.0,0.0,0.0,0.0,0.0,0.0
1636487980469396581,32555,1636487980468066381,,0.0,0.0,0.0,0.0,-1.0,0.0,0.0,0.0,0.0,0.0,0.0,0.0,0.0,0.000872664625997,0.00349065850399,-0.00349065850399,0.0,0.0,0.0,0.0,0.0,0.0,0.0,0.0,0.0,0.129492,0.129492,-9.614781,0.0,0.0,0.0,0.0,0.0,0.0,0.0,0.0,0.0
1636487980489810350,32556,1636487980488123908,,0.0,0.0,0.0,0.0,-1.0,0.0,0.0,0.0,0.0,0.0,0.0,0.0,0.0,-0.00785398163397,0.00174532925199,-0.00349065850399,0.0,0.0,0.0,0.0,0.0,0.0,0.0,0.0,0.0,0.32373,0.097119,-9.647154,0.0,0.0,0.0,0.0,0.0,0.0,0.0,0.0,0.0
1636487980509592047,32557,1636487980508046029,,0.0,0.0,0.0,0.0,-1.0,0.0,0.0,0.0,0.0,0.0,0.0,0.0,0.0,0.00436332312999,-0.00349065850399,-0.00698131700798,0.0,0.0,0.0,0.0,0.0,0.0,0.0,0.0,0.0,0.129492,0.097119,-9.582408,0.0,0.0,0.0,0.0,0.0,0.0,0.0,0.0,0.0
1636487980529277833,32558,1636487980528175693,,0.0,0.0,0.0,0.0,-1.0,0.0,0.0,0.0,0.0,0.0,0.0,0.0,0.0,-0.00610865238198,0.00785398163397,-0.011344640138,0.0,0.0,0.0,0.0,0.0,0.0,0.0,0.0,0.0,0.161865,0.097119,-9.582408,0.0,0.0,0.0,0.0,0.0,0.0,0.0,0.0,0.0
1636487980552267902,32559,1636487980549081567,,0.0,0.0,0.0,0.0,-1.0,0.0,0.0,0.0,0.0,0.0,0.0,0.0,0.0,0.00349065850399,0.00610865238198,-0.00349065850399,0.0,0.0,0.0,0.0,0.0,0.0,0.0,0.0,0.0,0.161865,0.194238,-9.614781,0.0,0.0,0.0,0.0,0.0,0.0,0.0,0.0,0.0
1636487980572345628,32560,1636487980568583491,,0.0,0.0,0.0,0.0,-1.0,0.0,0.0,0.0,0.0,0.0,0.0,0.0,0.0,0.00436332312999,0.00959931088597,-0.00349065850399,0.0,0.0,0.0,0.0,0.0,0.0,0.0,0.0,0.0,0.097119,0.097119,-9.614781,0.0,0.0,0.0,0.0,0.0,0.0,0.0,0.0,0.0
1636487980593964033,32561,1636487980589569719,,0.0,0.0,0.0,0.0,-1.0,0.0,0.0,0.0,0.0,0.0,0.0,0.0,0.0,-0.00785398163397,0.00959931088597,-0.014835298642,0.0,0.0,0.0,0.0,0.0,0.0,0.0,0.0,0.0,0.161865,0.161865,-9.679527,0.0,0.0,0.0,0.0,0.0,0.0,0.0,0.0,0.0
1636487980613133715,32562,1636487980608545226,,0.0,0.0,0.0,0.0,-1.0,0.0,0.0,0.0,0.0,0.0,0.0,0.0,0.0,-0.00349065850399,-0.000872664625997,-0.00785398163397,0.0,0.0,0.0,0.0,0.0,0.0,0.0,0.0,0.0,0.129492,0.129492,-9.614781,0.0,0.0,0.0,0.0,0.0,0.0,0.0,0.0,0.0
1636487980635575792,32563,1636487980629235984,,0.0,0.0,0.0,0.0,-1.0,0.0,0.0,0.0,0.0,0.0,0.0,0.0,0.0,-0.00261799387799,0.00698131700798,-0.00349065850399,0.0,0.0,0.0,0.0,0.0,0.0,0.0,0.0,0.0,0.291357,0.097119,-9.7119,0.0,0.0,0.0,0.0,0.0,0.0,0.0,0.0,0.0
1636487980652944076,32564,1636487980648507581,,0.0,0.0,0.0,0.0,-1.0,0.0,0.0,0.0,0.0,0.0,0.0,0.0,0.0,-0.00785398163397,-0.000872664625997,-0.011344640138,0.0,0.0,0.0,0.0,0.0,0.0,0.0,0.0,0.0,0.161865,0.129492,-9.582408,0.0,0.0,0.0,0.0,0.0,0.0,0.0,0.0,0.0
1636487980672604397,32565,1636487980668610507,,0.0,0.0,0.0,0.0,-1.0,0.0,0.0,0.0,0.0,0.0,0.0,0.0,0.0,-0.00261799387799,0.00698131700798,-0.00523598775598,0.0,0.0,0.0,0.0,0.0,0.0,0.0,0.0,0.0,0.161865,0.129492,-9.614781,0.0,0.0,0.0,0.0,0.0,0.0,0.0,0.0,0.0
1636487980692246910,32566,1636487980688491823,,0.0,0.0,0.0,0.0,-1.0,0.0,0.0,0.0,0.0,0.0,0.0,0.0,0.0,0.00349065850399,0.00523598775598,-0.00698131700798,0.0,0.0,0.0,0.0,0.0,0.0,0.0,0.0,0.0,0.161865,0.194238,-9.614781,0.0,0.0,0.0,0.0,0.0,0.0,0.0,0.0,0.0
1636487980709258194,32567,1636487980707861252,,0.0,0.0,0.0,0.0,-1.0,0.0,0.0,0.0,0.0,0.0,0.0,0.0,0.0,0.00174532925199,0.011344640138,-0.012217304764,0.0,0.0,0.0,0.0,0.0,0.0,0.0,0.0,0.0,0.064746,0.161865,-9.582408,0.0,0.0,0.0,0.0,0.0,0.0,0.0,0.0,0.0
1636487980728973768,32568,1636487980728620436,,0.0,0.0,0.0,0.0,-1.0,0.0,0.0,0.0,0.0,0.0,0.0,0.0,0.0,0.000872664625997,0.00349065850399,-0.00610865238198,0.0,0.0,0.0,0.0,0.0,0.0,0.0,0.0,0.0,0.129492,0.129492,-9.744273,0.0,0.0,0.0,0.0,0.0,0.0,0.0,0.0,0.0
1636487980748210211,32569,1636487980747634469,,0.0,0.0,0.0,0.0,-1.0,0.0,0.0,0.0,0.0,0.0,0.0,0.0,0.0,0.000872664625997,0.00436332312999,-0.0174532925199,0.0,0.0,0.0,0.0,0.0,0.0,0.0,0.0,0.0,0.129492,0.129492,-9.517662,0.0,0.0,0.0,0.0,0.0,0.0,0.0,0.0,0.0
1636487980768099614,32570,1636487980767573276,,0.0,0.0,0.0,0.0,-1.0,0.0,0.0,0.0,0.0,0.0,0.0,0.0,0.0,0.00523598775598,0.00785398163397,-0.00523598775598,0.0,0.0,0.0,0.0,0.0,0.0,0.0,0.0,0.0,0.161865,0.097119,-9.517662,0.0,0.0,0.0,0.0,0.0,0.0,0.0,0.0,0.0
1636487980788458447,32571,1636487980787825663,,0.0,0.0,0.0,0.0,-1.0,0.0,0.0,0.0,0.0,0.0,0.0,0.0,0.0,0.00436332312999,0.00349065850399,-0.0157079632679,0.0,0.0,0.0,0.0,0.0,0.0,0.0,0.0,0.0,0.161865,0.161865,-9.647154,0.0,0.0,0.0,0.0,0.0,0.0,0.0,0.0,0.0
1636487980808536755,32572,1636487980807808307,,0.0,0.0,0.0,0.0,-1.0,0.0,0.0,0.0,0.0,0.0,0.0,0.0,0.0,-0.00349065850399,0.00872664625997,-0.00785398163397,0.0,0.0,0.0,0.0,0.0,0.0,0.0,0.0,0.0,0.0,0.129492,-9.614781,0.0,0.0,0.0,0.0,0.0,0.0,0.0,0.0,0.0
1636487980828964418,32573,1636487980828230528,,0.0,0.0,0.0,0.0,-1.0,0.0,0.0,0.0,0.0,0.0,0.0,0.0,0.0,0.00436332312999,0.00698131700798,-0.00610865238198,0.0,0.0,0.0,0.0,0.0,0.0,0.0,0.0,0.0,0.129492,0.194238,-9.647154,0.0,0.0,0.0,0.0,0.0,0.0,0.0,0.0,0.0
1636487980847997267,32574,1636487980847822373,,0.0,0.0,0.0,0.0,-1.0,0.0,0.0,0.0,0.0,0.0,0.0,0.0,0.0,-0.00523598775598,0.00349065850399,-0.00872664625997,0.0,0.0,0.0,0.0,0.0,0.0,0.0,0.0,0.0,0.097119,0.194238,-9.679527,0.0,0.0,0.0,0.0,0.0,0.0,0.0,0.0,0.0
1636487980868517650,32575,1636487980868076150,,0.0,0.0,0.0,0.0,-1.0,0.0,0.0,0.0,0.0,0.0,0.0,0.0,0.0,-0.00872664625997,0.00872664625997,-0.00785398163397,0.0,0.0,0.0,0.0,0.0,0.0,0.0,0.0,0.0,0.194238,0.097119,-9.679527,0.0,0.0,0.0,0.0,0.0,0.0,0.0,0.0,0.0
1636487980892766934,32576,1636487980888597261,,0.0,0.0,0.0,0.0,-1.0,0.0,0.0,0.0,0.0,0.0,0.0,0.0,0.0,-0.010471975512,0.00349065850399,-0.00610865238198,0.0,0.0,0.0,0.0,0.0,0.0,0.0,0.0,0.0,0.258984,0.129492,-9.647154,0.0,0.0,0.0,0.0,0.0,0.0,0.0,0.0,0.0
1636487980911493004,32577,1636487980908430039,,0.0,0.0,0.0,0.0,-1.0,0.0,0.0,0.0,0.0,0.0,0.0,0.0,0.0,0.000872664625997,0.0,-0.010471975512,0.0,0.0,0.0,0.0,0.0,0.0,0.0,0.0,0.0,0.194238,0.161865,-9.647154,0.0,0.0,0.0,0.0,0.0,0.0,0.0,0.0,0.0
1636487980933890677,32578,1636487980929939018,,0.0,0.0,0.0,0.0,-1.0,0.0,0.0,0.0,0.0,0.0,0.0,0.0,0.0,-0.000872664625997,0.011344640138,-0.00610865238198,0.0,0.0,0.0,0.0,0.0,0.0,0.0,0.0,0.0,0.161865,0.226611,-9.614781,0.0,0.0,0.0,0.0,0.0,0.0,0.0,0.0,0.0
1636487980957062473,32579,1636487980948680015,,0.0,0.0,0.0,0.0,-1.0,0.0,0.0,0.0,0.0,0.0,0.0,0.0,0.0,-0.00698131700798,0.00785398163397,-0.00349065850399,0.0,0.0,0.0,0.0,0.0,0.0,0.0,0.0,0.0,0.194238,0.129492,-9.38817,0.0,0.0,0.0,0.0,0.0,0.0,0.0,0.0,0.0
1636487980971493555,32580,1636487980968556574,,0.0,0.0,0.0,0.0,-1.0,0.0,0.0,0.0,0.0,0.0,0.0,0.0,0.0,-0.00174532925199,0.00872664625997,-0.00610865238198,0.0,0.0,0.0,0.0,0.0,0.0,0.0,0.0,0.0,0.0,0.097119,-9.679527,0.0,0.0,0.0,0.0,0.0,0.0,0.0,0.0,0.0
1636487980991430725,32581,1636487980989750125,,0.0,0.0,0.0,0.0,-1.0,0.0,0.0,0.0,0.0,0.0,0.0,0.0,0.0,0.00872664625997,0.00872664625997,-0.0200712863979,0.0,0.0,0.0,0.0,0.0,0.0,0.0,0.0,0.0,0.129492,0.226611,-9.582408,0.0,0.0,0.0,0.0,0.0,0.0,0.0,0.0,0.0
1636487981010067580,32582,1636487981008046341,,0.0,0.0,0.0,0.0,-1.0,0.0,0.0,0.0,0.0,0.0,0.0,0.0,0.0,-0.00174532925199,0.00959931088597,-0.00698131700798,0.0,0.0,0.0,0.0,0.0,0.0,0.0,0.0,0.0,0.161865,0.194238,-9.582408,0.0,0.0,0.0,0.0,0.0,0.0,0.0,0.0,0.0
1636487981029105912,32583,1636487981027768933,,0.0,0.0,0.0,0.0,-1.0,0.0,0.0,0.0,0.0,0.0,0.0,0.0,0.0,-0.00261799387799,0.00436332312999,-0.00872664625997,0.0,0.0,0.0,0.0,0.0,0.0,0.0,0.0,0.0,0.0,0.194238,-9.485289,0.0,0.0,0.0,0.0,0.0,0.0,0.0,0.0,0.0
1636487981048719724,32584,1636487981047873781,,0.0,0.0,0.0,0.0,-1.0,0.0,0.0,0.0,0.0,0.0,0.0,0.0,0.0,0.0,0.0,0.0,0.0,0.0,0.0,0.0,0.0,0.0,0.0,0.0,0.0,0.161865,0.161865,-9.485289,0.0,0.0,0.0,0.0,0.0,0.0,0.0,0.0,0.0
1636487981068459847,32585,1636487981067784453,,0.0,0.0,0.0,0.0,-1.0,0.0,0.0,0.0,0.0,0.0,0.0,0.0,0.0,-0.000872664625997,-0.000872664625997,-0.00523598775598,0.0,0.0,0.0,0.0,0.0,0.0,0.0,0.0,0.0,0.226611,0.129492,-9.647154,0.0,0.0,0.0,0.0,0.0,0.0,0.0,0.0,0.0
1636487981088445415,32586,1636487981087808717,,0.0,0.0,0.0,0.0,-1.0,0.0,0.0,0.0,0.0,0.0,0.0,0.0,0.0,-0.00698131700798,0.012217304764,-0.00872664625997,0.0,0.0,0.0,0.0,0.0,0.0,0.0,0.0,0.0,0.194238,0.32373,-9.647154,0.0,0.0,0.0,0.0,0.0,0.0,0.0,0.0,0.0
1636487981112085599,32587,1636487981108803627,,0.0,0.0,0.0,0.0,-1.0,0.0,0.0,0.0,0.0,0.0,0.0,0.0,0.0,0.00349065850399,0.0165806278939,-0.00436332312999,0.0,0.0,0.0,0.0,0.0,0.0,0.0,0.0,0.0,0.161865,0.129492,-9.582408,0.0,0.0,0.0,0.0,0.0,0.0,0.0,0.0,0.0
1636487981131727735,32588,1636487981128991823,,0.0,0.0,0.0,0.0,-1.0,0.0,0.0,0.0,0.0,0.0,0.0,0.0,0.0,0.00698131700798,0.00349065850399,-0.013962634016,0.0,0.0,0.0,0.0,0.0,0.0,0.0,0.0,0.0,0.161865,0.097119,-9.7119,0.0,0.0,0.0,0.0,0.0,0.0,0.0,0.0,0.0
1636487981152237410,32589,1636487981148608107,,0.0,0.0,0.0,0.0,-1.0,0.0,0.0,0.0,0.0,0.0,0.0,0.0,0.0,0.0,-0.00436332312999,0.0,0.0,0.0,0.0,0.0,0.0,0.0,0.0,0.0,0.0,0.161865,0.129492,-9.582408,0.0,0.0,0.0,0.0,0.0,0.0,0.0,0.0,0.0
1636487981172286786,32590,1636487981169130635,,0.0,0.0,0.0,0.0,-1.0,0.0,0.0,0.0,0.0,0.0,0.0,0.0,0.0,-0.012217304764,0.00610865238198,-0.00523598775598,0.0,0.0,0.0,0.0,0.0,0.0,0.0,0.0,0.0,0.129492,0.161865,-9.647154,0.0,0.0,0.0,0.0,0.0,0.0,0.0,0.0,0.0
1636487981193132787,32591,1636487981188992010,,0.0,0.0,0.0,0.0,-1.0,0.0,0.0,0.0,0.0,0.0,0.0,0.0,0.0,-0.00174532925199,0.00785398163397,-0.00785398163397,0.0,0.0,0.0,0.0,0.0,0.0,0.0,0.0,0.0,0.161865,0.194238,-9.647154,0.0,0.0,0.0,0.0,0.0,0.0,0.0,0.0,0.0
1636487981211913380,32592,1636487981208525160,,0.0,0.0,0.0,0.0,-1.0,0.0,0.0,0.0,0.0,0.0,0.0,0.0,0.0,-0.000872664625997,0.0,-0.01308996939,0.0,0.0,0.0,0.0,0.0,0.0,0.0,0.0,0.0,0.194238,-0.032373,-9.550035,0.0,0.0,0.0,0.0,0.0,0.0,0.0,0.0,0.0
1636487981232571201,32593,1636487981229144294,,0.0,0.0,0.0,0.0,-1.0,0.0,0.0,0.0,0.0,0.0,0.0,0.0,0.0,0.00698131700798,0.011344640138,-0.012217304764,0.0,0.0,0.0,0.0,0.0,0.0,0.0,0.0,0.0,0.161865,0.194238,-9.679527,0.0,0.0,0.0,0.0,0.0,0.0,0.0,0.0,0.0
1636487981251591253,32594,1636487981248880383,,0.0,0.0,0.0,0.0,-1.0,0.0,0.0,0.0,0.0,0.0,0.0,0.0,0.0,0.00436332312999,0.012217304764,-0.011344640138,0.0,0.0,0.0,0.0,0.0,0.0,0.0,0.0,0.0,0.194238,0.32373,-9.614781,0.0,0.0,0.0,0.0,0.0,0.0,0.0,0.0,0.0
1636487981270659079,32595,1636487981268979086,,0.0,0.0,0.0,0.0,-1.0,0.0,0.0,0.0,0.0,0.0,0.0,0.0,0.0,-0.00349065850399,0.00959931088597,-0.00959931088597,0.0,0.0,0.0,0.0,0.0,0.0,0.0,0.0,0.0,0.291357,0.097119,-9.614781,0.0,0.0,0.0,0.0,0.0,0.0,0.0,0.0,0.0
1636487981291589686,32596,1636487981288682881,,0.0,0.0,0.0,0.0,-1.0,0.0,0.0,0.0,0.0,0.0,0.0,0.0,0.0,-0.00174532925199,0.00959931088597,-0.00436332312999,0.0,0.0,0.0,0.0,0.0,0.0,0.0,0.0,0.0,0.161865,0.161865,-9.614781,0.0,0.0,0.0,0.0,0.0,0.0,0.0,0.0,0.0
1636487981312180128,32597,1636487981308837287,,0.0,0.0,0.0,0.0,-1.0,0.0,0.0,0.0,0.0,0.0,0.0,0.0,0.0,-0.00698131700798,0.00261799387799,-0.00698131700798,0.0,0.0,0.0,0.0,0.0,0.0,0.0,0.0,0.0,0.0,0.194238,-9.582408,0.0,0.0,0.0,0.0,0.0,0.0,0.0,0.0,0.0
1636487981332967502,32598,1636487981328798852,,0.0,0.0,0.0,0.0,-1.0,0.0,0.0,0.0,0.0,0.0,0.0,0.0,0.0,-0.00261799387799,0.00349065850399,-0.00261799387799,0.0,0.0,0.0,0.0,0.0,0.0,0.0,0.0,0.0,0.226611,0.064746,-9.744273,0.0,0.0,0.0,0.0,0.0,0.0,0.0,0.0,0.0
1636487981351177813,32599,1636487981348842732,,0.0,0.0,0.0,0.0,-1.0,0.0,0.0,0.0,0.0,0.0,0.0,0.0,0.0,-0.00174532925199,0.00349065850399,-0.00174532925199,0.0,0.0,0.0,0.0,0.0,0.0,0.0,0.0,0.0,0.129492,-0.032373,-9.582408,0.0,0.0,0.0,0.0,0.0,0.0,0.0,0.0,0.0
1636487981372316576,32600,1636487981368967696,,0.0,0.0,0.0,0.0,-1.0,0.0,0.0,0.0,0.0,0.0,0.0,0.0,0.0,0.00261799387799,-0.00436332312999,-0.012217304764,0.0,0.0,0.0,0.0,0.0,0.0,0.0,0.0,0.0,0.161865,0.161865,-9.582408,0.0,0.0,0.0,0.0,0.0,0.0,0.0,0.0,0.0
1636487981392020714,32601,1636487981389007403,,0.0,0.0,0.0,0.0,-1.0,0.0,0.0,0.0,0.0,0.0,0.0,0.0,0.0,-0.00349065850399,0.014835298642,-0.00610865238198,0.0,0.0,0.0,0.0,0.0,0.0,0.0,0.0,0.0,0.161865,0.161865,-9.550035,0.0,0.0,0.0,0.0,0.0,0.0,0.0,0.0,0.0
1636487981412946136,32602,1636487981408996559,,0.0,0.0,0.0,0.0,-1.0,0.0,0.0,0.0,0.0,0.0,0.0,0.0,0.0,0.00785398163397,0.00261799387799,-0.00959931088597,0.0,0.0,0.0,0.0,0.0,0.0,0.0,0.0,0.0,0.0,0.161865,-9.647154,0.0,0.0,0.0,0.0,0.0,0.0,0.0,0.0,0.0
1636487981432323238,32603,1636487981428881968,,0.0,0.0,0.0,0.0,-1.0,0.0,0.0,0.0,0.0,0.0,0.0,0.0,0.0,0.00698131700798,0.00523598775598,-0.013962634016,0.0,0.0,0.0,0.0,0.0,0.0,0.0,0.0,0.0,0.226611,0.097119,-9.7119,0.0,0.0,0.0,0.0,0.0,0.0,0.0,0.0,0.0
1636487981451469913,32604,1636487981448966247,,0.0,0.0,0.0,0.0,-1.0,0.0,0.0,0.0,0.0,0.0,0.0,0.0,0.0,-0.00174532925199,0.00959931088597,-0.00436332312999,0.0,0.0,0.0,0.0,0.0,0.0,0.0,0.0,0.0,0.194238,0.097119,-9.614781,0.0,0.0,0.0,0.0,0.0,0.0,0.0,0.0,0.0
1636487981473679349,32605,1636487981469011932,,0.0,0.0,0.0,0.0,-1.0,0.0,0.0,0.0,0.0,0.0,0.0,0.0,0.0,-0.00436332312999,0.00785398163397,-0.00610865238198,0.0,0.0,0.0,0.0,0.0,0.0,0.0,0.0,0.0,0.194238,0.064746,-9.679527,0.0,0.0,0.0,0.0,0.0,0.0,0.0,0.0,0.0
1636487981490722747,32606,1636487981489012244,,0.0,0.0,0.0,0.0,-1.0,0.0,0.0,0.0,0.0,0.0,0.0,0.0,0.0,0.0,0.00785398163397,-0.013962634016,0.0,0.0,0.0,0.0,0.0,0.0,0.0,0.0,0.0,0.194238,0.129492,-9.679527,0.0,0.0,0.0,0.0,0.0,0.0,0.0,0.0,0.0
1636487981511219971,32607,1636487981508580471,,0.0,0.0,0.0,0.0,-1.0,0.0,0.0,0.0,0.0,0.0,0.0,0.0,0.0,0.000872664625997,0.00523598775598,0.0,0.0,0.0,0.0,0.0,0.0,0.0,0.0,0.0,0.0,0.161865,-0.129492,-9.582408,0.0,0.0,0.0,0.0,0.0,0.0,0.0,0.0,0.0
1636487981532181245,32608,1636487981529071035,,0.0,0.0,0.0,0.0,-1.0,0.0,0.0,0.0,0.0,0.0,0.0,0.0,0.0,0.00349065850399,-0.00523598775598,-0.013962634016,0.0,0.0,0.0,0.0,0.0,0.0,0.0,0.0,0.0,0.032373,0.129492,-9.614781,0.0,0.0,0.0,0.0,0.0,0.0,0.0,0.0,0.0
1636487981551825337,32609,1636487981548922498,,0.0,0.0,0.0,0.0,-1.0,0.0,0.0,0.0,0.0,0.0,0.0,0.0,0.0,-0.00523598775598,0.00872664625997,-0.00872664625997,0.0,0.0,0.0,0.0,0.0,0.0,0.0,0.0,0.0,0.194238,0.129492,-9.485289,0.0,0.0,0.0,0.0,0.0,0.0,0.0,0.0,0.0
1636487981572676593,32610,1636487981568750317,,0.0,0.0,0.0,0.0,-1.0,0.0,0.0,0.0,0.0,0.0,0.0,0.0,0.0,0.00174532925199,0.00523598775598,-0.0165806278939,0.0,0.0,0.0,0.0,0.0,0.0,0.0,0.0,0.0,0.194238,0.097119,-9.614781,0.0,0.0,0.0,0.0,0.0,0.0,0.0,0.0,0.0
1636487981591698839,32611,1636487981588853386,,0.0,0.0,0.0,0.0,-1.0,0.0,0.0,0.0,0.0,0.0,0.0,0.0,0.0,-0.00436332312999,0.00349065850399,-0.00610865238198,0.0,0.0,0.0,0.0,0.0,0.0,0.0,0.0,0.0,0.161865,0.129492,-9.614781,0.0,0.0,0.0,0.0,0.0,0.0,0.0,0.0,0.0
1636487981619890701,32612,1636487981608717073,,0.0,0.0,0.0,0.0,-1.0,0.0,0.0,0.0,0.0,0.0,0.0,0.0,0.0,-0.00174532925199,0.0,-0.00785398163397,0.0,0.0,0.0,0.0,0.0,0.0,0.0,0.0,0.0,0.129492,0.129492,-9.614781,0.0,0.0,0.0,0.0,0.0,0.0,0.0,0.0,0.0
1636487981636982361,32613,1636487981631262355,,0.0,0.0,0.0,0.0,-1.0,0.0,0.0,0.0,0.0,0.0,0.0,0.0,0.0,-0.00261799387799,0.00349065850399,-0.00174532925199,0.0,0.0,0.0,0.0,0.0,0.0,0.0,0.0,0.0,-0.032373,0.129492,-9.582408,0.0,0.0,0.0,0.0,0.0,0.0,0.0,0.0,0.0
1636487981653041305,32614,1636487981650933808,,0.0,0.0,0.0,0.0,-1.0,0.0,0.0,0.0,0.0,0.0,0.0,0.0,0.0,-0.00436332312999,0.000872664625997,-0.00872664625997,0.0,0.0,0.0,0.0,0.0,0.0,0.0,0.0,0.0,0.097119,0.161865,-9.582408,0.0,0.0,0.0,0.0,0.0,0.0,0.0,0.0,0.0
1636487981672847383,32615,1636487981669502237,,0.0,0.0,0.0,0.0,-1.0,0.0,0.0,0.0,0.0,0.0,0.0,0.0,0.0,0.012217304764,-0.00174532925199,-0.0174532925199,0.0,0.0,0.0,0.0,0.0,0.0,0.0,0.0,0.0,0.129492,0.064746,-9.550035,0.0,0.0,0.0,0.0,0.0,0.0,0.0,0.0,0.0
1636487981693460788,32616,1636487981688798758,,0.0,0.0,0.0,0.0,-1.0,0.0,0.0,0.0,0.0,0.0,0.0,0.0,0.0,-0.00610865238198,0.00174532925199,-0.00959931088597,0.0,0.0,0.0,0.0,0.0,0.0,0.0,0.0,0.0,0.194238,0.194238,-9.647154,0.0,0.0,0.0,0.0,0.0,0.0,0.0,0.0,0.0
1636487981710814842,32617,1636487981708113725,,0.0,0.0,0.0,0.0,-1.0,0.0,0.0,0.0,0.0,0.0,0.0,0.0,0.0,-0.00261799387799,-0.00349065850399,-0.00610865238198,0.0,0.0,0.0,0.0,0.0,0.0,0.0,0.0,0.0,0.194238,0.032373,-9.679527,0.0,0.0,0.0,0.0,0.0,0.0,0.0,0.0,0.0
1636487981729385191,32618,1636487981727817681,,0.0,0.0,0.0,0.0,-1.0,0.0,0.0,0.0,0.0,0.0,0.0,0.0,0.0,0.00261799387799,0.00698131700798,-0.012217304764,0.0,0.0,0.0,0.0,0.0,0.0,0.0,0.0,0.0,0.161865,0.129492,-9.614781,0.0,0.0,0.0,0.0,0.0,0.0,0.0,0.0,0.0
1636487981748076390,32619,1636487981747709463,,0.0,0.0,0.0,0.0,-1.0,0.0,0.0,0.0,0.0,0.0,0.0,0.0,0.0,-0.00436332312999,0.011344640138,-0.00349065850399,0.0,0.0,0.0,0.0,0.0,0.0,0.0,0.0,0.0,0.161865,0.194238,-9.679527,0.0,0.0,0.0,0.0,0.0,0.0,0.0,0.0,0.0
1636487981768477818,32620,1636487981767975125,,0.0,0.0,0.0,0.0,-1.0,0.0,0.0,0.0,0.0,0.0,0.0,0.0,0.0,-0.00523598775598,0.00698131700798,-0.00872664625997,0.0,0.0,0.0,0.0,0.0,0.0,0.0,0.0,0.0,0.129492,0.129492,-9.614781,0.0,0.0,0.0,0.0,0.0,0.0,0.0,0.0,0.0
1636487981788732515,32621,1636487981787858343,,0.0,0.0,0.0,0.0,-1.0,0.0,0.0,0.0,0.0,0.0,0.0,0.0,0.0,0.00785398163397,0.00698131700798,-0.00349065850399,0.0,0.0,0.0,0.0,0.0,0.0,0.0,0.0,0.0,0.194238,-0.064746,-9.614781,0.0,0.0,0.0,0.0,0.0,0.0,0.0,0.0,0.0
1636487981808277805,32622,1636487981807724382,,0.0,0.0,0.0,0.0,-1.0,0.0,0.0,0.0,0.0,0.0,0.0,0.0,0.0,-0.00523598775598,0.01308996939,-0.00698131700798,0.0,0.0,0.0,0.0,0.0,0.0,0.0,0.0,0.0,0.161865,0.097119,-9.582408,0.0,0.0,0.0,0.0,0.0,0.0,0.0,0.0,0.0
1636487981828814060,32623,1636487981827660802,,0.0,0.0,0.0,0.0,-1.0,0.0,0.0,0.0,0.0,0.0,0.0,0.0,0.0,-0.00436332312999,-0.00174532925199,-0.00698131700798,0.0,0.0,0.0,0.0,0.0,0.0,0.0,0.0,0.0,0.194238,0.129492,-9.647154,0.0,0.0,0.0,0.0,0.0,0.0,0.0,0.0,0.0
1636487981848316677,32624,1636487981847600380,,0.0,0.0,0.0,0.0,-1.0,0.0,0.0,0.0,0.0,0.0,0.0,0.0,0.0,-0.00174532925199,0.0,-0.00698131700798,0.0,0.0,0.0,0.0,0.0,0.0,0.0,0.0,0.0,0.161865,0.194238,-9.614781,0.0,0.0,0.0,0.0,0.0,0.0,0.0,0.0,0.0
1636487981868257353,32625,1636487981867685815,,0.0,0.0,0.0,0.0,-1.0,0.0,0.0,0.0,0.0,0.0,0.0,0.0,0.0,0.00523598775598,0.00523598775598,0.00174532925199,0.0,0.0,0.0,0.0,0.0,0.0,0.0,0.0,0.0,0.161865,0.097119,-9.614781,0.0,0.0,0.0,0.0,0.0,0.0,0.0,0.0,0.0
1636487981887875394,32626,1636487981887637305,,0.0,0.0,0.0,0.0,-1.0,0.0,0.0,0.0,0.0,0.0,0.0,0.0,0.0,0.000872664625997,0.00698131700798,-0.00436332312999,0.0,0.0,0.0,0.0,0.0,0.0,0.0,0.0,0.0,0.0,0.129492,-9.517662,0.0,0.0,0.0,0.0,0.0,0.0,0.0,0.0,0.0
1636487981908036712,32627,1636487981907649754,,0.0,0.0,0.0,0.0,-1.0,0.0,0.0,0.0,0.0,0.0,0.0,0.0,0.0,-0.00523598775598,0.00785398163397,0.0,0.0,0.0,0.0,0.0,0.0,0.0,0.0,0.0,0.0,0.0,0.161865,-9.614781,0.0,0.0,0.0,0.0,0.0,0.0,0.0,0.0,0.0
1636487981928107424,32628,1636487981927754447,,0.0,0.0,0.0,0.0,-1.0,0.0,0.0,0.0,0.0,0.0,0.0,0.0,0.0,0.00349065850399,0.013962634016,-0.00610865238198,0.0,0.0,0.0,0.0,0.0,0.0,0.0,0.0,0.0,0.161865,0.097119,-9.582408,0.0,0.0,0.0,0.0,0.0,0.0,0.0,0.0,0.0
1636487981948207893,32629,1636487981947626221,,0.0,0.0,0.0,0.0,-1.0,0.0,0.0,0.0,0.0,0.0,0.0,0.0,0.0,-0.00261799387799,0.00610865238198,-0.000872664625997,0.0,0.0,0.0,0.0,0.0,0.0,0.0,0.0,0.0,0.129492,0.097119,-9.679527,0.0,0.0,0.0,0.0,0.0,0.0,0.0,0.0,0.0
1636487981968194985,32630,1636487981967610156,,0.0,0.0,0.0,0.0,-1.0,0.0,0.0,0.0,0.0,0.0,0.0,0.0,0.0,-0.00698131700798,-0.000872664625997,-0.011344640138,0.0,0.0,0.0,0.0,0.0,0.0,0.0,0.0,0.0,0.129492,0.064746,-9.582408,0.0,0.0,0.0,0.0,0.0,0.0,0.0,0.0,0.0
1636487981988438171,32631,1636487981987621826,,0.0,0.0,0.0,0.0,-1.0,0.0,0.0,0.0,0.0,0.0,0.0,0.0,0.0,0.0,-0.00523598775598,-0.013962634016,0.0,0.0,0.0,0.0,0.0,0.0,0.0,0.0,0.0,0.194238,0.194238,-9.679527,0.0,0.0,0.0,0.0,0.0,0.0,0.0,0.0,0.0
1636487982008436760,32632,1636487982007664933,,0.0,0.0,0.0,0.0,-1.0,0.0,0.0,0.0,0.0,0.0,0.0,0.0,0.0,0.00261799387799,0.00523598775598,-0.000872664625997,0.0,0.0,0.0,0.0,0.0,0.0,0.0,0.0,0.0,0.194238,0.129492,-9.614781,0.0,0.0,0.0,0.0,0.0,0.0,0.0,0.0,0.0
1636487982027753220,32633,1636487982027640514,,0.0,0.0,0.0,0.0,-1.0,0.0,0.0,0.0,0.0,0.0,0.0,0.0,0.0,-0.00436332312999,0.00785398163397,-0.00261799387799,0.0,0.0,0.0,0.0,0.0,0.0,0.0,0.0,0.0,0.258984,0.097119,-9.906138,0.0,0.0,0.0,0.0,0.0,0.0,0.0,0.0,0.0
1636487982048344395,32634,1636487982047657479,,0.0,0.0,0.0,0.0,-1.0,0.0,0.0,0.0,0.0,0.0,0.0,0.0,0.0,0.000872664625997,0.00610865238198,-0.00261799387799,0.0,0.0,0.0,0.0,0.0,0.0,0.0,0.0,0.0,-0.064746,0.194238,-9.679527,0.0,0.0,0.0,0.0,0.0,0.0,0.0,0.0,0.0
1636487982068181177,32635,1636487982067651212,,0.0,0.0,0.0,0.0,-1.0,0.0,0.0,0.0,0.0,0.0,0.0,0.0,0.0,0.0,0.0200712863979,-0.011344640138,0.0,0.0,0.0,0.0,0.0,0.0,0.0,0.0,0.0,0.129492,0.161865,-9.582408,0.0,0.0,0.0,0.0,0.0,0.0,0.0,0.0,0.0
1636487982088175567,32636,1636487982087653496,,0.0,0.0,0.0,0.0,-1.0,0.0,0.0,0.0,0.0,0.0,0.0,0.0,0.0,0.00174532925199,0.00698131700798,-0.00523598775598,0.0,0.0,0.0,0.0,0.0,0.0,0.0,0.0,0.0,0.097119,0.226611,-9.614781,0.0,0.0,0.0,0.0,0.0,0.0,0.0,0.0,0.0
1636487982107948617,32637,1636487982107652985,,0.0,0.0,0.0,0.0,-1.0,0.0,0.0,0.0,0.0,0.0,0.0,0.0,0.0,-0.00436332312999,0.0,0.0,0.0,0.0,0.0,0.0,0.0,0.0,0.0,0.0,0.0,0.129492,0.161865,-9.517662,0.0,0.0,0.0,0.0,0.0,0.0,0.0,0.0,0.0
1636487982128488865,32638,1636487982127701902,,0.0,0.0,0.0,0.0,-1.0,0.0,0.0,0.0,0.0,0.0,0.0,0.0,0.0,-0.00610865238198,0.00174532925199,-0.00698131700798,0.0,0.0,0.0,0.0,0.0,0.0,0.0,0.0,0.0,0.161865,0.129492,-9.550035,0.0,0.0,0.0,0.0,0.0,0.0,0.0,0.0,0.0
1636487982148148448,32639,1636487982147688854,,0.0,0.0,0.0,0.0,-1.0,0.0,0.0,0.0,0.0,0.0,0.0,0.0,0.0,-0.00174532925199,0.00261799387799,-0.0191986217719,0.0,0.0,0.0,0.0,0.0,0.0,0.0,0.0,0.0,0.161865,0.161865,-9.647154,0.0,0.0,0.0,0.0,0.0,0.0,0.0,0.0,0.0
1636487982168172092,32640,1636487982167674884,,0.0,0.0,0.0,0.0,-1.0,0.0,0.0,0.0,0.0,0.0,0.0,0.0,0.0,0.00349065850399,0.00436332312999,0.00436332312999,0.0,0.0,0.0,0.0,0.0,0.0,0.0,0.0,0.0,0.194238,0.161865,-9.614781,0.0,0.0,0.0,0.0,0.0,0.0,0.0,0.0,0.0
1636487982188143498,32641,1636487982187670263,,0.0,0.0,0.0,0.0,-1.0,0.0,0.0,0.0,0.0,0.0,0.0,0.0,0.0,0.0,0.00698131700798,-0.00349065850399,0.0,0.0,0.0,0.0,0.0,0.0,0.0,0.0,0.0,0.129492,0.097119,-9.614781,0.0,0.0,0.0,0.0,0.0,0.0,0.0,0.0,0.0
1636487982208039235,32642,1636487982207628702,,0.0,0.0,0.0,0.0,-1.0,0.0,0.0,0.0,0.0,0.0,0.0,0.0,0.0,-0.00785398163397,0.00349065850399,-0.00523598775598,0.0,0.0,0.0,0.0,0.0,0.0,0.0,0.0,0.0,0.129492,0.064746,-9.614781,0.0,0.0,0.0,0.0,0.0,0.0,0.0,0.0,0.0
1636487982227909087,32643,1636487982227632927,,0.0,0.0,0.0,0.0,-1.0,0.0,0.0,0.0,0.0,0.0,0.0,0.0,0.0,-0.00436332312999,0.00174532925199,-0.00785398163397,0.0,0.0,0.0,0.0,0.0,0.0,0.0,0.0,0.0,0.194238,0.161865,-9.614781,0.0,0.0,0.0,0.0,0.0,0.0,0.0,0.0,0.0
1636487982247815863,32644,1636487982247665207,,0.0,0.0,0.0,0.0,-1.0,0.0,0.0,0.0,0.0,0.0,0.0,0.0,0.0,-0.00610865238198,0.000872664625997,-0.00610865238198,0.0,0.0,0.0,0.0,0.0,0.0,0.0,0.0,0.0,0.194238,0.129492,-9.647154,0.0,0.0,0.0,0.0,0.0,0.0,0.0,0.0,0.0
1636487982268160742,32645,1636487982267640214,,0.0,0.0,0.0,0.0,-1.0,0.0,0.0,0.0,0.0,0.0,0.0,0.0,0.0,0.00174532925199,0.00698131700798,-0.011344640138,0.0,0.0,0.0,0.0,0.0,0.0,0.0,0.0,0.0,0.194238,0.161865,-9.582408,0.0,0.0,0.0,0.0,0.0,0.0,0.0,0.0,0.0
1636487982288181348,32646,1636487982287725805,,0.0,0.0,0.0,0.0,-1.0,0.0,0.0,0.0,0.0,0.0,0.0,0.0,0.0,-0.000872664625997,0.00523598775598,0.000872664625997,0.0,0.0,0.0,0.0,0.0,0.0,0.0,0.0,0.0,0.194238,0.064746,-9.679527,0.0,0.0,0.0,0.0,0.0,0.0,0.0,0.0,0.0
1636487982308344957,32647,1636487982307691780,,0.0,0.0,0.0,0.0,-1.0,0.0,0.0,0.0,0.0,0.0,0.0,0.0,0.0,0.00610865238198,0.00959931088597,-0.00523598775598,0.0,0.0,0.0,0.0,0.0,0.0,0.0,0.0,0.0,0.194238,0.129492,-9.679527,0.0,0.0,0.0,0.0,0.0,0.0,0.0,0.0,0.0
1636487982327992009,32648,1636487982327621541,,0.0,0.0,0.0,0.0,-1.0,0.0,0.0,0.0,0.0,0.0,0.0,0.0,0.0,0.0,0.0,-0.00610865238198,0.0,0.0,0.0,0.0,0.0,0.0,0.0,0.0,0.0,0.194238,0.161865,-9.647154,0.0,0.0,0.0,0.0,0.0,0.0,0.0,0.0,0.0
1636487982348377446,32649,1636487982347665579,,0.0,0.0,0.0,0.0,-1.0,0.0,0.0,0.0,0.0,0.0,0.0,0.0,0.0,-0.00436332312999,0.00872664625997,-0.00610865238198,0.0,0.0,0.0,0.0,0.0,0.0,0.0,0.0,0.0,0.194238,0.032373,-9.614781,0.0,0.0,0.0,0.0,0.0,0.0,0.0,0.0,0.0
1636487982368293202,32650,1636487982367680971,,0.0,0.0,0.0,0.0,-1.0,0.0,0.0,0.0,0.0,0.0,0.0,0.0,0.0,-0.00349065850399,0.00349065850399,-0.010471975512,0.0,0.0,0.0,0.0,0.0,0.0,0.0,0.0,0.0,0.161865,0.194238,-9.744273,0.0,0.0,0.0,0.0,0.0,0.0,0.0,0.0,0.0
1636487982387897224,32651,1636487982387767098,,0.0,0.0,0.0,0.0,-1.0,0.0,0.0,0.0,0.0,0.0,0.0,0.0,0.0,-0.00261799387799,0.00349065850399,-0.00349065850399,0.0,0.0,0.0,0.0,0.0,0.0,0.0,0.0,0.0,0.129492,0.129492,-9.550035,0.0,0.0,0.0,0.0,0.0,0.0,0.0,0.0,0.0
1636487982408329973,32652,1636487982407779164,,0.0,0.0,0.0,0.0,-1.0,0.0,0.0,0.0,0.0,0.0,0.0,0.0,0.0,-0.00261799387799,0.00261799387799,-0.00698131700798,0.0,0.0,0.0,0.0,0.0,0.0,0.0,0.0,0.0,0.226611,0.097119,-9.679527,0.0,0.0,0.0,0.0,0.0,0.0,0.0,0.0,0.0
1636487982428380297,32653,1636487982427775826,,0.0,0.0,0.0,0.0,-1.0,0.0,0.0,0.0,0.0,0.0,0.0,0.0,0.0,0.00349065850399,0.00698131700798,-0.00174532925199,0.0,0.0,0.0,0.0,0.0,0.0,0.0,0.0,0.0,0.129492,0.129492,-9.614781,0.0,0.0,0.0,0.0,0.0,0.0,0.0,0.0,0.0
1636487982449141293,32654,1636487982448031306,,0.0,0.0,0.0,0.0,-1.0,0.0,0.0,0.0,0.0,0.0,0.0,0.0,0.0,-0.00349065850399,0.00872664625997,0.00610865238198,0.0,0.0,0.0,0.0,0.0,0.0,0.0,0.0,0.0,0.161865,0.129492,-9.809019,0.0,0.0,0.0,0.0,0.0,0.0,0.0,0.0,0.0
1636487982470878987,32655,1636487982468404442,,0.0,0.0,0.0,0.0,-1.0,0.0,0.0,0.0,0.0,0.0,0.0,0.0,0.0,0.00349065850399,0.000872664625997,-0.00785398163397,0.0,0.0,0.0,0.0,0.0,0.0,0.0,0.0,0.0,0.194238,0.161865,-9.582408,0.0,0.0,0.0,0.0,0.0,0.0,0.0,0.0,0.0
1636487982490774442,32656,1636487982488737476,,0.0,0.0,0.0,0.0,-1.0,0.0,0.0,0.0,0.0,0.0,0.0,0.0,0.0,0.00261799387799,-0.011344640138,-0.012217304764,0.0,0.0,0.0,0.0,0.0,0.0,0.0,0.0,0.0,0.194238,0.161865,-9.550035,0.0,0.0,0.0,0.0,0.0,0.0,0.0,0.0,0.0
1636487982511556106,32657,1636487982508207162,,0.0,0.0,0.0,0.0,-1.0,0.0,0.0,0.0,0.0,0.0,0.0,0.0,0.0,-0.00610865238198,0.00610865238198,0.00785398163397,0.0,0.0,0.0,0.0,0.0,0.0,0.0,0.0,0.0,0.0,0.129492,-9.582408,0.0,0.0,0.0,0.0,0.0,0.0,0.0,0.0,0.0
1636487982531972191,32658,1636487982528841078,,0.0,0.0,0.0,0.0,-1.0,0.0,0.0,0.0,0.0,0.0,0.0,0.0,0.0,0.00349065850399,0.00436332312999,-0.000872664625997,0.0,0.0,0.0,0.0,0.0,0.0,0.0,0.0,0.0,0.161865,0.064746,-9.7119,0.0,0.0,0.0,0.0,0.0,0.0,0.0,0.0,0.0
1636487982550238963,32659,1636487982548611079,,0.0,0.0,0.0,0.0,-1.0,0.0,0.0,0.0,0.0,0.0,0.0,0.0,0.0,-0.00436332312999,0.01308996939,-0.00349065850399,0.0,0.0,0.0,0.0,0.0,0.0,0.0,0.0,0.0,0.194238,0.226611,-9.647154,0.0,0.0,0.0,0.0,0.0,0.0,0.0,0.0,0.0
1636487982570669609,32660,1636487982568537021,,0.0,0.0,0.0,0.0,-1.0,0.0,0.0,0.0,0.0,0.0,0.0,0.0,0.0,0.000872664625997,0.012217304764,-0.00785398163397,0.0,0.0,0.0,0.0,0.0,0.0,0.0,0.0,0.0,0.226611,0.064746,-9.809019,0.0,0.0,0.0,0.0,0.0,0.0,0.0,0.0,0.0
1636487982588881469,32661,1636487982588395335,,0.0,0.0,0.0,0.0,-1.0,0.0,0.0,0.0,0.0,0.0,0.0,0.0,0.0,-0.000872664625997,0.00698131700798,-0.00698131700798,0.0,0.0,0.0,0.0,0.0,0.0,0.0,0.0,0.0,0.097119,0.129492,-9.647154,0.0,0.0,0.0,0.0,0.0,0.0,0.0,0.0,0.0
1636487982611630627,32662,1636487982608240423,,0.0,0.0,0.0,0.0,-1.0,0.0,0.0,0.0,0.0,0.0,0.0,0.0,0.0,-0.00523598775598,0.00523598775598,-0.00785398163397,0.0,0.0,0.0,0.0,0.0,0.0,0.0,0.0,0.0,0.129492,0.129492,-9.841392,0.0,0.0,0.0,0.0,0.0,0.0,0.0,0.0,0.0
1636487982631176768,32663,1636487982628398710,,0.0,0.0,0.0,0.0,-1.0,0.0,0.0,0.0,0.0,0.0,0.0,0.0,0.0,0.010471975512,0.00785398163397,-0.00610865238198,0.0,0.0,0.0,0.0,0.0,0.0,0.0,0.0,0.0,0.194238,0.129492,-9.647154,0.0,0.0,0.0,0.0,0.0,0.0,0.0,0.0,0.0
1636487982651988441,32664,1636487982648811964,,0.0,0.0,0.0,0.0,-1.0,0.0,0.0,0.0,0.0,0.0,0.0,0.0,0.0,0.012217304764,0.0,-0.00959931088597,0.0,0.0,0.0,0.0,0.0,0.0,0.0,0.0,0.0,0.161865,0.226611,-9.614781,0.0,0.0,0.0,0.0,0.0,0.0,0.0,0.0,0.0
1636487982670364880,32665,1636487982668400695,,0.0,0.0,0.0,0.0,-1.0,0.0,0.0,0.0,0.0,0.0,0.0,0.0,0.0,0.00261799387799,0.0,-0.00436332312999,0.0,0.0,0.0,0.0,0.0,0.0,0.0,0.0,0.0,0.194238,0.194238,-9.550035,0.0,0.0,0.0,0.0,0.0,0.0,0.0,0.0,0.0
1636487982691701710,32666,1636487982688595584,,0.0,0.0,0.0,0.0,-1.0,0.0,0.0,0.0,0.0,0.0,0.0,0.0,0.0,0.000872664625997,0.014835298642,0.00174532925199,0.0,0.0,0.0,0.0,0.0,0.0,0.0,0.0,0.0,0.097119,0.129492,-9.647154,0.0,0.0,0.0,0.0,0.0,0.0,0.0,0.0,0.0
1636487982711473577,32667,1636487982708856560,,0.0,0.0,0.0,0.0,-1.0,0.0,0.0,0.0,0.0,0.0,0.0,0.0,0.0,0.00523598775598,-0.00698131700798,-0.01308996939,0.0,0.0,0.0,0.0,0.0,0.0,0.0,0.0,0.0,0.161865,0.032373,-9.485289,0.0,0.0,0.0,0.0,0.0,0.0,0.0,0.0,0.0
1636487982732202663,32668,1636487982728696128,,0.0,0.0,0.0,0.0,-1.0,0.0,0.0,0.0,0.0,0.0,0.0,0.0,0.0,0.00610865238198,0.00436332312999,-0.011344640138,0.0,0.0,0.0,0.0,0.0,0.0,0.0,0.0,0.0,0.194238,0.194238,-9.582408,0.0,0.0,0.0,0.0,0.0,0.0,0.0,0.0,0.0
1636487982751133049,32669,1636487982748639095,,0.0,0.0,0.0,0.0,-1.0,0.0,0.0,0.0,0.0,0.0,0.0,0.0,0.0,0.00349065850399,-0.014835298642,-0.00610865238198,0.0,0.0,0.0,0.0,0.0,0.0,0.0,0.0,0.0,-0.582714,0.064746,-9.291051,0.0,0.0,0.0,0.0,0.0,0.0,0.0,0.0,0.0
1636487982770718128,32670,1636487982768690246,,0.0,0.0,0.0,0.0,-1.0,0.0,0.0,0.0,0.0,0.0,0.0,0.0,0.0,0.00523598775598,-0.00785398163397,-0.012217304764,0.0,0.0,0.0,0.0,0.0,0.0,0.0,0.0,0.0,-1.489158,0.517968,-9.161559,0.0,0.0,0.0,0.0,0.0,0.0,0.0,0.0,0.0
1636487982789749975,32671,1636487982788666076,,0.0,0.0,0.0,0.0,-1.0,0.0,0.0,0.0,0.0,0.0,0.0,0.0,0.0,-0.0226892802759,0.0331612557879,-0.011344640138,0.0,0.0,0.0,0.0,0.0,0.0,0.0,0.0,0.0,-0.226611,0.0,-9.841392,0.0,0.0,0.0,0.0,0.0,0.0,0.0,0.0,0.0
1636487982810787030,32672,1636487982808285827,,0.0,0.0,0.0,0.0,-1.0,0.0,0.0,0.0,0.0,0.0,0.0,0.0,0.0,-0.0392699081699,-0.012217304764,-0.0523598775598,0.0,0.0,0.0,0.0,0.0,0.0,0.0,0.0,0.0,-0.064746,-0.129492,-9.776646,0.0,0.0,0.0,0.0,0.0,0.0,0.0,0.0,0.0
1636487982830746398,32673,1636487982828980245,,0.0,0.0,0.0,0.0,-1.0,0.0,0.0,0.0,0.0,0.0,0.0,0.0,0.0,-0.0209439510239,0.0200712863979,-0.0410152374219,0.0,0.0,0.0,0.0,0.0,0.0,0.0,0.0,0.0,-0.226611,-0.194238,-10.488852,0.0,0.0,0.0,0.0,0.0,0.0,0.0,0.0,0.0
1636487982850244159,32674,1636487982848594223,,0.0,0.0,0.0,0.0,-1.0,0.0,0.0,0.0,0.0,0.0,0.0,0.0,0.0,-0.01308996939,0.0226892802759,-0.0218166156499,0.0,0.0,0.0,0.0,0.0,0.0,0.0,0.0,0.0,0.226611,-0.032373,-9.873765,0.0,0.0,0.0,0.0,0.0,0.0,0.0,0.0,0.0
1636487982870227804,32675,1636487982868567188,,0.0,0.0,0.0,0.0,-1.0,0.0,0.0,0.0,0.0,0.0,0.0,0.0,0.0,-0.0191986217719,-0.00436332312999,-0.0497418836818,0.0,0.0,0.0,0.0,0.0,0.0,0.0,0.0,0.0,-0.161865,0.582714,-8.708337,0.0,0.0,0.0,0.0,0.0,0.0,0.0,0.0,0.0
1636487982892479775,32676,1636487982888650145,,0.0,0.0,0.0,0.0,-1.0,0.0,0.0,0.0,0.0,0.0,0.0,0.0,0.0,-0.011344640138,0.00349065850399,-0.000872664625997,0.0,0.0,0.0,0.0,0.0,0.0,0.0,0.0,0.0,0.0,0.485595,-10.03563,0.0,0.0,0.0,0.0,0.0,0.0,0.0,0.0,0.0
1636487982910205902,32677,1636487982908342736,,0.0,0.0,0.0,0.0,-1.0,0.0,0.0,0.0,0.0,0.0,0.0,0.0,0.0,0.01308996939,0.0279252680319,0.01308996939,0.0,0.0,0.0,0.0,0.0,0.0,0.0,0.0,0.0,0.388476,0.226611,-9.517662,0.0,0.0,0.0,0.0,0.0,0.0,0.0,0.0,0.0
1636487982931443207,32678,1636487982928432391,,0.0,0.0,0.0,0.0,-1.0,0.0,0.0,0.0,0.0,0.0,0.0,0.0,0.0,0.0279252680319,0.0,0.0445058959259,0.0,0.0,0.0,0.0,0.0,0.0,0.0,0.0,0.0,-0.194238,0.291357,-8.805456,0.0,0.0,0.0,0.0,0.0,0.0,0.0,0.0,0.0
1636487982951173361,32679,1636487982948751209,,0.0,0.0,0.0,0.0,-1.0,0.0,0.0,0.0,0.0,0.0,0.0,0.0,0.0,0.0453785605519,0.011344640138,0.0933751149817,0.0,0.0,0.0,0.0,0.0,0.0,0.0,0.0,0.0,-0.258984,0.258984,-10.132749,0.0,0.0,0.0,0.0,0.0,0.0,0.0,0.0,0.0
1636487982971876260,32680,1636487982968621670,,0.0,0.0,0.0,0.0,-1.0,0.0,0.0,0.0,0.0,0.0,0.0,0.0,0.0,0.00959931088597,0.0287979326579,0.0357792496659,0.0,0.0,0.0,0.0,0.0,0.0,0.0,0.0,0.0,0.485595,-0.226611,-9.355797,0.0,0.0,0.0,0.0,0.0,0.0,0.0,0.0,0.0
1636487982991853009,32681,1636487982988783291,,0.0,0.0,0.0,0.0,-1.0,0.0,0.0,0.0,0.0,0.0,0.0,0.0,0.0,-0.00261799387799,-0.010471975512,0.0165806278939,0.0,0.0,0.0,0.0,0.0,0.0,0.0,0.0,0.0,0.064746,-0.097119,-9.129186,0.0,0.0,0.0,0.0,0.0,0.0,0.0,0.0,0.0
1636487983011754491,32682,1636487983008473051,,0.0,0.0,0.0,0.0,-1.0,0.0,0.0,0.0,0.0,0.0,0.0,0.0,0.0,-0.0226892802759,-0.00785398163397,-0.0506145483078,0.0,0.0,0.0,0.0,0.0,0.0,0.0,0.0,0.0,-0.032373,0.097119,-10.229868,0.0,0.0,0.0,0.0,0.0,0.0,0.0,0.0,0.0
1636487983030656893,32683,1636487983028796957,,0.0,0.0,0.0,0.0,-1.0,0.0,0.0,0.0,0.0,0.0,0.0,0.0,0.0,-0.0183259571459,0.0279252680319,-0.0724311639578,0.0,0.0,0.0,0.0,0.0,0.0,0.0,0.0,0.0,0.356103,0.517968,-9.420543,0.0,0.0,0.0,0.0,0.0,0.0,0.0,0.0,0.0
1636487983052231404,32684,1636487983048478360,,0.0,0.0,0.0,0.0,-1.0,0.0,0.0,0.0,0.0,0.0,0.0,0.0,0.0,-0.00436332312999,-0.0218166156499,0.00436332312999,0.0,0.0,0.0,0.0,0.0,0.0,0.0,0.0,0.0,-0.712206,0.226611,-8.870202,0.0,0.0,0.0,0.0,0.0,0.0,0.0,0.0,0.0
1636487983071584129,32685,1636487983068684573,,0.0,0.0,0.0,0.0,-1.0,0.0,0.0,0.0,0.0,0.0,0.0,0.0,0.0,0.0366519142919,0.00698131700798,0.014835298642,0.0,0.0,0.0,0.0,0.0,0.0,0.0,0.0,0.0,0.097119,0.356103,-10.391733,0.0,0.0,0.0,0.0,0.0,0.0,0.0,0.0,0.0
1636487983090846093,32686,1636487983088517101,,0.0,0.0,0.0,0.0,-1.0,0.0,0.0,0.0,0.0,0.0,0.0,0.0,0.0,0.0261799387799,0.0183259571459,0.0619591884458,0.0,0.0,0.0,0.0,0.0,0.0,0.0,0.0,0.0,0.388476,0.258984,-9.129186,0.0,0.0,0.0,0.0,0.0,0.0,0.0,0.0,0.0
1636487983111128292,32687,1636487983108579360,,0.0,0.0,0.0,0.0,-1.0,0.0,0.0,0.0,0.0,0.0,0.0,0.0,0.0,0.0200712863979,0.0,0.0898844564777,0.0,0.0,0.0,0.0,0.0,0.0,0.0,0.0,0.0,0.64746,0.097119,-9.226305,0.0,0.0,0.0,0.0,0.0,0.0,0.0,0.0,0.0
1636487983131927696,32688,1636487983128550283,,0.0,0.0,0.0,0.0,-1.0,0.0,0.0,0.0,0.0,0.0,0.0,0.0,0.0,-0.013962634016,0.0183259571459,-0.0479965544298,0.0,0.0,0.0,0.0,0.0,0.0,0.0,0.0,0.0,0.712206,0.194238,-9.744273,0.0,0.0,0.0,0.0,0.0,0.0,0.0,0.0,0.0
1636487983151668240,32689,1636487983148729615,,0.0,0.0,0.0,0.0,-1.0,0.0,0.0,0.0,0.0,0.0,0.0,0.0,0.0,-0.0427605666739,0.0305432619099,-0.0628318530718,0.0,0.0,0.0,0.0,0.0,0.0,0.0,0.0,0.0,0.129492,0.517968,-9.161559,0.0,0.0,0.0,0.0,0.0,0.0,0.0,0.0,0.0
1636487983171201290,32690,1636487983168522766,,0.0,0.0,0.0,0.0,-1.0,0.0,0.0,0.0,0.0,0.0,0.0,0.0,0.0,-0.00436332312999,-0.00523598775598,0.00436332312999,0.0,0.0,0.0,0.0,0.0,0.0,0.0,0.0,0.0,-0.64746,-0.032373,-9.452916,0.0,0.0,0.0,0.0,0.0,0.0,0.0,0.0,0.0
1636487983189828411,32691,1636487983188353820,,0.0,0.0,0.0,0.0,-1.0,0.0,0.0,0.0,0.0,0.0,0.0,0.0,0.0,-0.000872664625997,0.0270526034059,-0.0157079632679,0.0,0.0,0.0,0.0,0.0,0.0,0.0,0.0,0.0,0.485595,0.0,-10.294614,0.0,0.0,0.0,0.0,0.0,0.0,0.0,0.0,0.0
1636487983210267042,32692,1636487983208671492,,0.0,0.0,0.0,0.0,-1.0,0.0,0.0,0.0,0.0,0.0,0.0,0.0,0.0,0.0506145483078,0.0165806278939,0.0479965544298,0.0,0.0,0.0,0.0,0.0,0.0,0.0,0.0,0.0,0.485595,0.129492,-9.323424,0.0,0.0,0.0,0.0,0.0,0.0,0.0,0.0,0.0
1636487983230010642,32693,1636487983228536318,,0.0,0.0,0.0,0.0,-1.0,0.0,0.0,0.0,0.0,0.0,0.0,0.0,0.0,0.01308996939,-0.0357792496659,0.00436332312999,0.0,0.0,0.0,0.0,0.0,0.0,0.0,0.0,0.0,0.291357,0.161865,-9.7119,0.0,0.0,0.0,0.0,0.0,0.0,0.0,0.0,0.0
1636487983251517173,32694,1636487983248867985,,0.0,0.0,0.0,0.0,-1.0,0.0,0.0,0.0,0.0,0.0,0.0,0.0,0.0,-0.00523598775598,0.0322885911619,-0.0558505360638,0.0,0.0,0.0,0.0,0.0,0.0,0.0,0.0,0.0,0.550341,0.485595,-10.100376,0.0,0.0,0.0,0.0,0.0,0.0,0.0,0.0,0.0
1636487983270111019,32695,1636487983268519226,,0.0,0.0,0.0,0.0,-1.0,0.0,0.0,0.0,0.0,0.0,0.0,0.0,0.0,-0.00610865238198,0.00785398163397,-0.00698131700798,0.0,0.0,0.0,0.0,0.0,0.0,0.0,0.0,0.0,-0.420849,-0.161865,-8.870202,0.0,0.0,0.0,0.0,0.0,0.0,0.0,0.0,0.0
1636487983292427885,32696,1636487983288792566,,0.0,0.0,0.0,0.0,-1.0,0.0,0.0,0.0,0.0,0.0,0.0,0.0,0.0,-0.0602138591938,-0.00785398163397,-0.0890117918517,0.0,0.0,0.0,0.0,0.0,0.0,0.0,0.0,0.0,-0.226611,0.129492,-9.873765,0.0,0.0,0.0,0.0,0.0,0.0,0.0,0.0,0.0
1636487983309168028,32697,1636487983308404158,,0.0,0.0,0.0,0.0,-1.0,0.0,0.0,0.0,0.0,0.0,0.0,0.0,0.0,-0.00436332312999,0.0410152374219,-0.014835298642,0.0,0.0,0.0,0.0,0.0,0.0,0.0,0.0,0.0,0.097119,0.258984,-9.970884,0.0,0.0,0.0,0.0,0.0,0.0,0.0,0.0,0.0
1636487983332351014,32698,1636487983329456430,,0.0,0.0,0.0,0.0,-1.0,0.0,0.0,0.0,0.0,0.0,0.0,0.0,0.0,0.0183259571459,-0.013962634016,0.013962634016,0.0,0.0,0.0,0.0,0.0,0.0,0.0,0.0,0.0,0.129492,-0.258984,-9.096813,0.0,0.0,0.0,0.0,0.0,0.0,0.0,0.0,0.0
1636487983350442628,32699,1636487983348352380,,0.0,0.0,0.0,0.0,-1.0,0.0,0.0,0.0,0.0,0.0,0.0,0.0,0.0,0.0549778714378,-0.0174532925199,0.0279252680319,0.0,0.0,0.0,0.0,0.0,0.0,0.0,0.0,0.0,0.0,0.453222,-9.809019,0.0,0.0,0.0,0.0,0.0,0.0,0.0,0.0,0.0
1636487983372456059,32700,1636487983369123216,,0.0,0.0,0.0,0.0,-1.0,0.0,0.0,0.0,0.0,0.0,0.0,0.0,0.0,-0.00698131700798,0.0322885911619,0.0645771823238,0.0,0.0,0.0,0.0,0.0,0.0,0.0,0.0,0.0,0.32373,0.226611,-9.647154,0.0,0.0,0.0,0.0,0.0,0.0,0.0,0.0,0.0
1636487983391934516,32701,1636487983388825763,,0.0,0.0,0.0,0.0,-1.0,0.0,0.0,0.0,0.0,0.0,0.0,0.0,0.0,-0.0174532925199,-0.011344640138,-0.0436332312999,0.0,0.0,0.0,0.0,0.0,0.0,0.0,0.0,0.0,0.097119,0.097119,-8.870202,0.0,0.0,0.0,0.0,0.0,0.0,0.0,0.0,0.0
1636487983411656134,32702,1636487983408972254,,0.0,0.0,0.0,0.0,-1.0,0.0,0.0,0.0,0.0,0.0,0.0,0.0,0.0,-0.0584685299418,-0.011344640138,-0.0872664625997,0.0,0.0,0.0,0.0,0.0,0.0,0.0,0.0,0.0,0.226611,0.32373,-9.744273,0.0,0.0,0.0,0.0,0.0,0.0,0.0,0.0,0.0
1636487983431823542,32703,1636487983428585683,,0.0,0.0,0.0,0.0,-1.0,0.0,0.0,0.0,0.0,0.0,0.0,0.0,0.0,-0.0279252680319,0.01308996939,-0.0663225115758,0.0,0.0,0.0,0.0,0.0,0.0,0.0,0.0,0.0,-0.129492,0.097119,-9.226305,0.0,0.0,0.0,0.0,0.0,0.0,0.0,0.0,0.0
1636487983451988730,32704,1636487983448782278,,0.0,0.0,0.0,0.0,-1.0,0.0,0.0,0.0,0.0,0.0,0.0,0.0,0.0,0.0200712863979,-0.00959931088597,-0.0270526034059,0.0,0.0,0.0,0.0,0.0,0.0,0.0,0.0,0.0,-0.129492,0.32373,-9.485289,0.0,0.0,0.0,0.0,0.0,0.0,0.0,0.0,0.0
1636487983473418097,32705,1636487983468990819,,0.0,0.0,0.0,0.0,-1.0,0.0,0.0,0.0,0.0,0.0,0.0,0.0,0.0,0.0200712863979,0.00261799387799,0.0794124809657,0.0,0.0,0.0,0.0,0.0,0.0,0.0,0.0,0.0,0.032373,0.485595,-10.03563,0.0,0.0,0.0,0.0,0.0,0.0,0.0,0.0,0.0
1636487983492571988,32706,1636487983488667271,,0.0,0.0,0.0,0.0,-1.0,0.0,0.0,0.0,0.0,0.0,0.0,0.0,0.0,0.0226892802759,0.0,0.0776671517137,0.0,0.0,0.0,0.0,0.0,0.0,0.0,0.0,0.0,-0.032373,0.161865,-9.809019,0.0,0.0,0.0,0.0,0.0,0.0,0.0,0.0,0.0
1636487983512568996,32707,1636487983508641600,,0.0,0.0,0.0,0.0,-1.0,0.0,0.0,0.0,0.0,0.0,0.0,0.0,0.0,0.00349065850399,0.00785398163397,-0.00610865238198,0.0,0.0,0.0,0.0,0.0,0.0,0.0,0.0,0.0,0.291357,-0.226611,-9.7119,0.0,0.0,0.0,0.0,0.0,0.0,0.0,0.0,0.0
1636487983533871092,32708,1636487983528807322,,0.0,0.0,0.0,0.0,-1.0,0.0,0.0,0.0,0.0,0.0,0.0,0.0,0.0,-0.0401425727959,0.00872664625997,-0.0872664625997,0.0,0.0,0.0,0.0,0.0,0.0,0.0,0.0,0.0,0.0,-0.161865,-9.452916,0.0,0.0,0.0,0.0,0.0,0.0,0.0,0.0,0.0
1636487983551662134,32709,1636487983548650457,,0.0,0.0,0.0,0.0,-1.0,0.0,0.0,0.0,0.0,0.0,0.0,0.0,0.0,-0.0331612557879,-0.0183259571459,-0.0514872129338,0.0,0.0,0.0,0.0,0.0,0.0,0.0,0.0,0.0,-0.32373,0.420849,-9.452916,0.0,0.0,0.0,0.0,0.0,0.0,0.0,0.0,0.0
1636487983573276364,32710,1636487983569332145,,0.0,0.0,0.0,0.0,-1.0,0.0,0.0,0.0,0.0,0.0,0.0,0.0,0.0,0.0375245789179,0.0183259571459,0.0314159265359,0.0,0.0,0.0,0.0,0.0,0.0,0.0,0.0,0.0,-0.097119,0.32373,-10.100376,0.0,0.0,0.0,0.0,0.0,0.0,0.0,0.0,0.0
1636487983590163139,32711,1636487983588769131,,0.0,0.0,0.0,0.0,-1.0,0.0,0.0,0.0,0.0,0.0,0.0,0.0,0.0,0.00785398163397,0.0287979326579,0.0881391272257,0.0,0.0,0.0,0.0,0.0,0.0,0.0,0.0,0.0,0.744579,0.356103,-9.550035,0.0,0.0,0.0,0.0,0.0,0.0,0.0,0.0,0.0
1636487983612054542,32712,1636487983608816243,,0.0,0.0,0.0,0.0,-1.0,0.0,0.0,0.0,0.0,0.0,0.0,0.0,0.0,0.0174532925199,-0.00523598775598,0.0637045176978,0.0,0.0,0.0,0.0,0.0,0.0,0.0,0.0,0.0,0.582714,0.32373,-9.550035,0.0,0.0,0.0,0.0,0.0,0.0,0.0,0.0,0.0
1636487983635280707,32713,1636487983630754030,,0.0,0.0,0.0,0.0,-1.0,0.0,0.0,0.0,0.0,0.0,0.0,0.0,0.0,-0.00523598775598,0.00698131700798,0.00523598775598,0.0,0.0,0.0,0.0,0.0,0.0,0.0,0.0,0.0,0.582714,-0.129492,-9.841392,0.0,0.0,0.0,0.0,0.0,0.0,0.0,0.0,0.0
1636487983653504411,32714,1636487983648692147,,0.0,0.0,0.0,0.0,-1.0,0.0,0.0,0.0,0.0,0.0,0.0,0.0,0.0,-0.0401425727959,0.00523598775598,-0.0532325421858,0.0,0.0,0.0,0.0,0.0,0.0,0.0,0.0,0.0,-0.420849,-0.32373,-9.226305,0.0,0.0,0.0,0.0,0.0,0.0,0.0,0.0,0.0
1636487983672486072,32715,1636487983668870559,,0.0,0.0,0.0,0.0,-1.0,0.0,0.0,0.0,0.0,0.0,0.0,0.0,0.0,0.01308996939,-0.00174532925199,-0.0619591884458,0.0,0.0,0.0,0.0,0.0,0.0,0.0,0.0,0.0,-0.550341,0.32373,-9.938511,0.0,0.0,0.0,0.0,0.0,0.0,0.0,0.0,0.0
1636487983691657704,32716,1636487983689012713,,0.0,0.0,0.0,0.0,-1.0,0.0,0.0,0.0,0.0,0.0,0.0,0.0,0.0,-0.00261799387799,0.0541052068118,0.011344640138,0.0,0.0,0.0,0.0,0.0,0.0,0.0,0.0,0.0,0.226611,0.453222,-9.582408,0.0,0.0,0.0,0.0,0.0,0.0,0.0,0.0,0.0
1636487983712644039,32717,1636487983709095276,,0.0,0.0,0.0,0.0,-1.0,0.0,0.0,0.0,0.0,0.0,0.0,0.0,0.0,0.0357792496659,-0.0174532925199,0.0654498469498,0.0,0.0,0.0,0.0,0.0,0.0,0.0,0.0,0.0,0.356103,0.453222,-9.129186,0.0,0.0,0.0,0.0,0.0,0.0,0.0,0.0,0.0
1636487983732065879,32718,1636487983728984034,,0.0,0.0,0.0,0.0,-1.0,0.0,0.0,0.0,0.0,0.0,0.0,0.0,0.0,0.00349065850399,-0.000872664625997,0.108210413624,0.0,0.0,0.0,0.0,0.0,0.0,0.0,0.0,0.0,0.291357,0.032373,-10.326987,0.0,0.0,0.0,0.0,0.0,0.0,0.0,0.0,0.0
1636487983752070707,32719,1636487983748698426,,0.0,0.0,0.0,0.0,-1.0,0.0,0.0,0.0,0.0,0.0,0.0,0.0,0.0,0.00872664625997,0.0157079632679,0.0,0.0,0.0,0.0,0.0,0.0,0.0,0.0,0.0,0.0,0.064746,-0.194238,-9.647154,0.0,0.0,0.0,0.0,0.0,0.0,0.0,0.0,0.0
1636487983771274653,32720,1636487983769084873,,0.0,0.0,0.0,0.0,-1.0,0.0,0.0,0.0,0.0,0.0,0.0,0.0,0.0,-0.0401425727959,-0.00261799387799,-0.0514872129338,0.0,0.0,0.0,0.0,0.0,0.0,0.0,0.0,0.0,0.194238,0.0,-9.323424,0.0,0.0,0.0,0.0,0.0,0.0,0.0,0.0,0.0
1636487983793483097,32721,1636487983789034081,,0.0,0.0,0.0,0.0,-1.0,0.0,0.0,0.0,0.0,0.0,0.0,0.0,0.0,0.00872664625997,-0.00261799387799,-0.0933751149817,0.0,0.0,0.0,0.0,0.0,0.0,0.0,0.0,0.0,0.258984,0.194238,-9.647154,0.0,0.0,0.0,0.0,0.0,0.0,0.0,0.0,0.0
1636487983813119546,32722,1636487983808768515,,0.0,0.0,0.0,0.0,-1.0,0.0,0.0,0.0,0.0,0.0,0.0,0.0,0.0,0.0,0.00349065850399,-0.0445058959259,0.0,0.0,0.0,0.0,0.0,0.0,0.0,0.0,0.0,-0.226611,0.32373,-9.38817,0.0,0.0,0.0,0.0,0.0,0.0,0.0,0.0,0.0
1636487983831041528,32723,1636487983828743659,,0.0,0.0,0.0,0.0,-1.0,0.0,0.0,0.0,0.0,0.0,0.0,0.0,0.0,0.0427605666739,0.00872664625997,0.0619591884458,0.0,0.0,0.0,0.0,0.0,0.0,0.0,0.0,0.0,-0.064746,0.356103,-9.744273,0.0,0.0,0.0,0.0,0.0,0.0,0.0,0.0,0.0
1636487983852371494,32724,1636487983848907845,,0.0,0.0,0.0,0.0,-1.0,0.0,0.0,0.0,0.0,0.0,0.0,0.0,0.0,0.00959931088597,0.013962634016,0.0602138591938,0.0,0.0,0.0,0.0,0.0,0.0,0.0,0.0,0.0,0.388476,0.129492,-9.679527,0.0,0.0,0.0,0.0,0.0,0.0,0.0,0.0,0.0
1636487983870710179,32725,1636487983868653923,,0.0,0.0,0.0,0.0,-1.0,0.0,0.0,0.0,0.0,0.0,0.0,0.0,0.0,-0.014835298642,0.013962634016,0.00785398163397,0.0,0.0,0.0,0.0,0.0,0.0,0.0,0.0,0.0,0.550341,0.258984,-9.161559,0.0,0.0,0.0,0.0,0.0,0.0,0.0,0.0,0.0
1636487983892678426,32726,1636487983888978513,,0.0,0.0,0.0,0.0,-1.0,0.0,0.0,0.0,0.0,0.0,0.0,0.0,0.0,-0.0270526034059,-0.00872664625997,-0.0418879020479,0.0,0.0,0.0,0.0,0.0,0.0,0.0,0.0,0.0,0.453222,0.356103,-9.161559,0.0,0.0,0.0,0.0,0.0,0.0,0.0,0.0,0.0
1636487983913254490,32727,1636487983908811815,,0.0,0.0,0.0,0.0,-1.0,0.0,0.0,0.0,0.0,0.0,0.0,0.0,0.0,0.000872664625997,0.0200712863979,-0.0959931088597,0.0,0.0,0.0,0.0,0.0,0.0,0.0,0.0,0.0,-0.161865,-0.097119,-9.906138,0.0,0.0,0.0,0.0,0.0,0.0,0.0,0.0,0.0
1636487983930061985,32728,1636487983928995334,,0.0,0.0,0.0,0.0,-1.0,0.0,0.0,0.0,0.0,0.0,0.0,0.0,0.0,0.010471975512,0.0165806278939,-0.0287979326579,0.0,0.0,0.0,0.0,0.0,0.0,0.0,0.0,0.0,-0.226611,0.161865,-9.129186,0.0,0.0,0.0,0.0,0.0,0.0,0.0,0.0,0.0
1636487983953663987,32729,1636487983949278333,,0.0,0.0,0.0,0.0,-1.0,0.0,0.0,0.0,0.0,0.0,0.0,0.0,0.0,0.0410152374219,-0.00436332312999,0.0340339204139,0.0,0.0,0.0,0.0,0.0,0.0,0.0,0.0,0.0,-0.064746,0.129492,-9.517662,0.0,0.0,0.0,0.0,0.0,0.0,0.0,0.0,0.0
1636487983973065896,32730,1636487983968906547,,0.0,0.0,0.0,0.0,-1.0,0.0,0.0,0.0,0.0,0.0,0.0,0.0,0.0,-0.000872664625997,0.0218166156499,0.0497418836818,0.0,0.0,0.0,0.0,0.0,0.0,0.0,0.0,0.0,0.906444,0.064746,-9.938511,0.0,0.0,0.0,0.0,0.0,0.0,0.0,0.0,0.0
1636487983992095353,32731,1636487983989184415,,0.0,0.0,0.0,0.0,-1.0,0.0,0.0,0.0,0.0,0.0,0.0,0.0,0.0,-0.00174532925199,-0.0244346095279,-0.011344640138,0.0,0.0,0.0,0.0,0.0,0.0,0.0,0.0,0.0,0.32373,0.097119,-9.323424,0.0,0.0,0.0,0.0,0.0,0.0,0.0,0.0,0.0
1636487984011547172,32732,1636487984008693966,,0.0,0.0,0.0,0.0,-1.0,0.0,0.0,0.0,0.0,0.0,0.0,0.0,0.0,-0.0445058959259,-0.00523598775598,-0.0479965544298,0.0,0.0,0.0,0.0,0.0,0.0,0.0,0.0,0.0,0.097119,0.194238,-9.809019,0.0,0.0,0.0,0.0,0.0,0.0,0.0,0.0,0.0
1636487984032629952,32733,1636487984029113870,,0.0,0.0,0.0,0.0,-1.0,0.0,0.0,0.0,0.0,0.0,0.0,0.0,0.0,-0.0165806278939,0.00523598775598,-0.0497418836818,0.0,0.0,0.0,0.0,0.0,0.0,0.0,0.0,0.0,-0.258984,0.129492,-9.809019,0.0,0.0,0.0,0.0,0.0,0.0,0.0,0.0,0.0
1636487984051016689,32734,1636487984048720186,,0.0,0.0,0.0,0.0,-1.0,0.0,0.0,0.0,0.0,0.0,0.0,0.0,0.0,-0.012217304764,0.0174532925199,-0.00698131700798,0.0,0.0,0.0,0.0,0.0,0.0,0.0,0.0,0.0,-0.194238,0.097119,-9.647154,0.0,0.0,0.0,0.0,0.0,0.0,0.0,0.0,0.0
1636487984073340625,32735,1636487984069012647,,0.0,0.0,0.0,0.0,-1.0,0.0,0.0,0.0,0.0,0.0,0.0,0.0,0.0,0.0261799387799,0.0314159265359,0.0183259571459,0.0,0.0,0.0,0.0,0.0,0.0,0.0,0.0,0.0,0.776952,0.388476,-10.229868,0.0,0.0,0.0,0.0,0.0,0.0,0.0,0.0,0.0
1636487984094167760,32736,1636487984088820103,,0.0,0.0,0.0,0.0,-1.0,0.0,0.0,0.0,0.0,0.0,0.0,0.0,0.0,0.0191986217719,0.011344640138,0.0218166156499,0.0,0.0,0.0,0.0,0.0,0.0,0.0,0.0,0.0,0.161865,0.097119,-9.582408,0.0,0.0,0.0,0.0,0.0,0.0,0.0,0.0,0.0
1636487984111549782,32737,1636487984108778456,,0.0,0.0,0.0,0.0,-1.0,0.0,0.0,0.0,0.0,0.0,0.0,0.0,0.0,-0.00436332312999,-0.0191986217719,-0.0209439510239,0.0,0.0,0.0,0.0,0.0,0.0,0.0,0.0,0.0,-0.161865,-0.258984,-9.679527,0.0,0.0,0.0,0.0,0.0,0.0,0.0,0.0,0.0
1636487984130563555,32738,1636487984129104303,,0.0,0.0,0.0,0.0,-1.0,0.0,0.0,0.0,0.0,0.0,0.0,0.0,0.0,-0.0357792496659,0.0200712863979,-0.0296705972839,0.0,0.0,0.0,0.0,0.0,0.0,0.0,0.0,0.0,-0.064746,-0.258984,-9.7119,0.0,0.0,0.0,0.0,0.0,0.0,0.0,0.0,0.0
1636487984151166901,32739,1636487984148656610,,0.0,0.0,0.0,0.0,-1.0,0.0,0.0,0.0,0.0,0.0,0.0,0.0,0.0,-0.0200712863979,0.013962634016,-0.0427605666739,0.0,0.0,0.0,0.0,0.0,0.0,0.0,0.0,0.0,0.0,0.032373,-8.967321,0.0,0.0,0.0,0.0,0.0,0.0,0.0,0.0,0.0
1636487984171250002,32740,1636487984168917925,,0.0,0.0,0.0,0.0,-1.0,0.0,0.0,0.0,0.0,0.0,0.0,0.0,0.0,0.0,-0.011344640138,-0.0296705972839,0.0,0.0,0.0,0.0,0.0,0.0,0.0,0.0,0.0,0.032373,0.161865,-9.906138,0.0,0.0,0.0,0.0,0.0,0.0,0.0,0.0,0.0
1636487984192401311,32741,1636487984188958332,,0.0,0.0,0.0,0.0,-1.0,0.0,0.0,0.0,0.0,0.0,0.0,0.0,0.0,0.012217304764,0.010471975512,0.0235619449019,0.0,0.0,0.0,0.0,0.0,0.0,0.0,0.0,0.0,0.679833,0.388476,-10.03563,0.0,0.0,0.0,0.0,0.0,0.0,0.0,0.0,0.0
1636487984210476550,32742,1636487984208710506,,0.0,0.0,0.0,0.0,-1.0,0.0,0.0,0.0,0.0,0.0,0.0,0.0,0.0,0.0383972435439,-0.0174532925199,0.0375245789179,0.0,0.0,0.0,0.0,0.0,0.0,0.0,0.0,0.0,0.291357,0.388476,-9.452916,0.0,0.0,0.0,0.0,0.0,0.0,0.0,0.0,0.0
1636487984231861055,32743,1636487984228736783,,0.0,0.0,0.0,0.0,-1.0,0.0,0.0,0.0,0.0,0.0,0.0,0.0,0.0,0.00261799387799,0.01308996939,0.012217304764,0.0,0.0,0.0,0.0,0.0,0.0,0.0,0.0,0.0,0.582714,0.0,-10.262241,0.0,0.0,0.0,0.0,0.0,0.0,0.0,0.0,0.0
1636487984254089169,32744,1636487984248664542,,0.0,0.0,0.0,0.0,-1.0,0.0,0.0,0.0,0.0,0.0,0.0,0.0,0.0,-0.0287979326579,0.0191986217719,-0.0645771823238,0.0,0.0,0.0,0.0,0.0,0.0,0.0,0.0,0.0,0.388476,-0.258984,-9.485289,0.0,0.0,0.0,0.0,0.0,0.0,0.0,0.0,0.0
1636487984271257970,32745,1636487984268520259,,0.0,0.0,0.0,0.0,-1.0,0.0,0.0,0.0,0.0,0.0,0.0,0.0,0.0,-0.0287979326579,-0.013962634016,-0.0994837673637,0.0,0.0,0.0,0.0,0.0,0.0,0.0,0.0,0.0,-0.129492,0.161865,-9.323424,0.0,0.0,0.0,0.0,0.0,0.0,0.0,0.0,0.0
1636487984291737856,32746,1636487984288755877,,0.0,0.0,0.0,0.0,-1.0,0.0,0.0,0.0,0.0,0.0,0.0,0.0,0.0,-0.000872664625997,0.0235619449019,-0.0235619449019,0.0,0.0,0.0,0.0,0.0,0.0,0.0,0.0,0.0,-0.388476,0.129492,-9.809019,0.0,0.0,0.0,0.0,0.0,0.0,0.0,0.0,0.0
1636487984311672436,32747,1636487984308701166,,0.0,0.0,0.0,0.0,-1.0,0.0,0.0,0.0,0.0,0.0,0.0,0.0,0.0,0.0157079632679,0.011344640138,0.0610865238198,0.0,0.0,0.0,0.0,0.0,0.0,0.0,0.0,0.0,0.097119,0.161865,-9.517662,0.0,0.0,0.0,0.0,0.0,0.0,0.0,0.0,0.0
1636487984330902176,32748,1636487984329063175,,0.0,0.0,0.0,0.0,-1.0,0.0,0.0,0.0,0.0,0.0,0.0,0.0,0.0,0.0279252680319,-0.00436332312999,0.0401425727959,0.0,0.0,0.0,0.0,0.0,0.0,0.0,0.0,0.0,0.194238,0.356103,-9.744273,0.0,0.0,0.0,0.0,0.0,0.0,0.0,0.0,0.0
1636487984351392790,32749,1636487984348664529,,0.0,0.0,0.0,0.0,-1.0,0.0,0.0,0.0,0.0,0.0,0.0,0.0,0.0,-0.00872664625997,0.00872664625997,0.0287979326579,0.0,0.0,0.0,0.0,0.0,0.0,0.0,0.0,0.0,0.517968,0.097119,-10.03563,0.0,0.0,0.0,0.0,0.0,0.0,0.0,0.0,0.0
1636487984372317288,32750,1636487984369221167,,0.0,0.0,0.0,0.0,-1.0,0.0,0.0,0.0,0.0,0.0,0.0,0.0,0.0,-0.0305432619099,0.000872664625997,-0.0514872129338,0.0,0.0,0.0,0.0,0.0,0.0,0.0,0.0,0.0,0.615087,-0.064746,-9.032067,0.0,0.0,0.0,0.0,0.0,0.0,0.0,0.0,0.0
1636487984391037002,32751,1636487984388985849,,0.0,0.0,0.0,0.0,-1.0,0.0,0.0,0.0,0.0,0.0,0.0,0.0,0.0,-0.0296705972839,-0.0270526034059,-0.0497418836818,0.0,0.0,0.0,0.0,0.0,0.0,0.0,0.0,0.0,-0.420849,0.291357,-9.744273,0.0,0.0,0.0,0.0,0.0,0.0,0.0,0.0,0.0
1636487984410896968,32752,1636487984408884921,,0.0,0.0,0.0,0.0,-1.0,0.0,0.0,0.0,0.0,0.0,0.0,0.0,0.0,0.0305432619099,0.0497418836818,0.0235619449019,0.0,0.0,0.0,0.0,0.0,0.0,0.0,0.0,0.0,0.032373,0.032373,-10.197495,0.0,0.0,0.0,0.0,0.0,0.0,0.0,0.0,0.0
1636487984433311419,32753,1636487984429110389,,0.0,0.0,0.0,0.0,-1.0,0.0,0.0,0.0,0.0,0.0,0.0,0.0,0.0,0.0253072741539,0.00436332312999,0.0349065850399,0.0,0.0,0.0,0.0,0.0,0.0,0.0,0.0,0.0,0.485595,-0.097119,-8.967321,0.0,0.0,0.0,0.0,0.0,0.0,0.0,0.0,0.0
1636487984452518786,32754,1636487984448775161,,0.0,0.0,0.0,0.0,-1.0,0.0,0.0,0.0,0.0,0.0,0.0,0.0,0.0,0.0314159265359,-0.0174532925199,0.0209439510239,0.0,0.0,0.0,0.0,0.0,0.0,0.0,0.0,0.0,0.712206,0.097119,-9.809019,0.0,0.0,0.0,0.0,0.0,0.0,0.0,0.0,0.0
1636487984470823814,32755,1636487984468664769,,0.0,0.0,0.0,0.0,-1.0,0.0,0.0,0.0,0.0,0.0,0.0,0.0,0.0,0.00349065850399,0.0200712863979,-0.00174532925199,0.0,0.0,0.0,0.0,0.0,0.0,0.0,0.0,0.0,0.420849,-0.032373,-9.809019,0.0,0.0,0.0,0.0,0.0,0.0,0.0,0.0,0.0
1636487984494087532,32756,1636487984489231434,,0.0,0.0,0.0,0.0,-1.0,0.0,0.0,0.0,0.0,0.0,0.0,0.0,0.0,-0.0235619449019,-0.0165806278939,-0.0165806278939,0.0,0.0,0.0,0.0,0.0,0.0,0.0,0.0,0.0,-0.517968,0.064746,-9.032067,0.0,0.0,0.0,0.0,0.0,0.0,0.0,0.0,0.0
1636487984512767423,32757,1636487984508704361,,0.0,0.0,0.0,0.0,-1.0,0.0,0.0,0.0,0.0,0.0,0.0,0.0,0.0,-0.0331612557879,0.0340339204139,-0.0174532925199,0.0,0.0,0.0,0.0,0.0,0.0,0.0,0.0,0.0,0.32373,0.129492,-10.068003,0.0,0.0,0.0,0.0,0.0,0.0,0.0,0.0,0.0
1636487984532189628,32758,1636487984529428261,,0.0,0.0,0.0,0.0,-1.0,0.0,0.0,0.0,0.0,0.0,0.0,0.0,0.0,-0.00349065850399,0.000872664625997,-0.0322885911619,0.0,0.0,0.0,0.0,0.0,0.0,0.0,0.0,0.0,0.097119,0.161865,-8.902575,0.0,0.0,0.0,0.0,0.0,0.0,0.0,0.0,0.0
1636487984553291324,32759,1636487984549079377,,0.0,0.0,0.0,0.0,-1.0,0.0,0.0,0.0,0.0,0.0,0.0,0.0,0.0,0.0314159265359,-0.000872664625997,0.0270526034059,0.0,0.0,0.0,0.0,0.0,0.0,0.0,0.0,0.0,0.258984,0.129492,-9.906138,0.0,0.0,0.0,0.0,0.0,0.0,0.0,0.0,0.0
1636487984573101202,32760,1636487984569050218,,0.0,0.0,0.0,0.0,-1.0,0.0,0.0,0.0,0.0,0.0,0.0,0.0,0.0,0.0200712863979,0.00698131700798,0.0253072741539,0.0,0.0,0.0,0.0,0.0,0.0,0.0,0.0,0.0,0.356103,0.356103,-9.873765,0.0,0.0,0.0,0.0,0.0,0.0,0.0,0.0,0.0
1636487984591055449,32761,1636487984589034874,,0.0,0.0,0.0,0.0,-1.0,0.0,0.0,0.0,0.0,0.0,0.0,0.0,0.0,0.00436332312999,-0.000872664625997,0.0174532925199,0.0,0.0,0.0,0.0,0.0,0.0,0.0,0.0,0.0,-0.097119,0.129492,-9.258678,0.0,0.0,0.0,0.0,0.0,0.0,0.0,0.0,0.0
1636487984610505121,32762,1636487984608760067,,0.0,0.0,0.0,0.0,-1.0,0.0,0.0,0.0,0.0,0.0,0.0,0.0,0.0,-0.0209439510239,-0.01308996939,-0.0244346095279,0.0,0.0,0.0,0.0,0.0,0.0,0.0,0.0,0.0,-0.064746,0.032373,-9.614781,0.0,0.0,0.0,0.0,0.0,0.0,0.0,0.0,0.0
1636487984632548840,32763,1636487984629211925,,0.0,0.0,0.0,0.0,-1.0,0.0,0.0,0.0,0.0,0.0,0.0,0.0,0.0,-0.0445058959259,0.0436332312999,-0.0733038285838,0.0,0.0,0.0,0.0,0.0,0.0,0.0,0.0,0.0,0.679833,-0.129492,-10.068003,0.0,0.0,0.0,0.0,0.0,0.0,0.0,0.0,0.0
1636487984651705993,32764,1636487984648763647,,0.0,0.0,0.0,0.0,-1.0,0.0,0.0,0.0,0.0,0.0,0.0,0.0,0.0,0.0,-0.014835298642,-0.0453785605519,0.0,0.0,0.0,0.0,0.0,0.0,0.0,0.0,0.0,-0.226611,0.388476,-9.096813,0.0,0.0,0.0,0.0,0.0,0.0,0.0,0.0,0.0
1636487984670422792,32765,1636487984668893349,,0.0,0.0,0.0,0.0,-1.0,0.0,0.0,0.0,0.0,0.0,0.0,0.0,0.0,0.0331612557879,0.00174532925199,0.0532325421858,0.0,0.0,0.0,0.0,0.0,0.0,0.0,0.0,0.0,-0.291357,0.129492,-10.488852,0.0,0.0,0.0,0.0,0.0,0.0,0.0,0.0,0.0
1636487984690471031,32766,1636487984688838108,,0.0,0.0,0.0,0.0,-1.0,0.0,0.0,0.0,0.0,0.0,0.0,0.0,0.0,-0.01308996939,0.0322885911619,0.00610865238198,0.0,0.0,0.0,0.0,0.0,0.0,0.0,0.0,0.0,0.517968,0.226611,-9.841392,0.0,0.0,0.0,0.0,0.0,0.0,0.0,0.0,0.0
1636487984712796040,32767,1636487984708715148,,0.0,0.0,0.0,0.0,-1.0,0.0,0.0,0.0,0.0,0.0,0.0,0.0,0.0,0.00436332312999,-0.00698131700798,-0.00349065850399,0.0,0.0,0.0,0.0,0.0,0.0,0.0,0.0,0.0,0.291357,0.258984,-9.096813,0.0,0.0,0.0,0.0,0.0,0.0,0.0,0.0,0.0
1636487984731666686,32768,1636487984728853009,,0.0,0.0,0.0,0.0,-1.0,0.0,0.0,0.0,0.0,0.0,0.0,0.0,0.0,-0.0226892802759,0.0322885911619,0.0,0.0,0.0,0.0,0.0,0.0,0.0,0.0,0.0,0.0,1.003563,-0.129492,-10.326987,0.0,0.0,0.0,0.0,0.0,0.0,0.0,0.0,0.0
1636487984752376083,32769,1636487984748905353,,0.0,0.0,0.0,0.0,-1.0,0.0,0.0,0.0,0.0,0.0,0.0,0.0,0.0,-0.0436332312999,-0.000872664625997,-0.0785398163397,0.0,0.0,0.0,0.0,0.0,0.0,0.0,0.0,0.0,0.129492,0.032373,-9.096813,0.0,0.0,0.0,0.0,0.0,0.0,0.0,0.0,0.0
1636487984771826927,32770,1636487984768548914,,0.0,0.0,0.0,0.0,-1.0,0.0,0.0,0.0,0.0,0.0,0.0,0.0,0.0,0.00698131700798,-0.0209439510239,-0.0383972435439,0.0,0.0,0.0,0.0,0.0,0.0,0.0,0.0,0.0,-0.938817,0.356103,-9.226305,0.0,0.0,0.0,0.0,0.0,0.0,0.0,0.0,0.0
1636487984792267496,32771,1636487984788815775,,0.0,0.0,0.0,0.0,-1.0,0.0,0.0,0.0,0.0,0.0,0.0,0.0,0.0,0.0322885911619,0.012217304764,0.0410152374219,0.0,0.0,0.0,0.0,0.0,0.0,0.0,0.0,0.0,-0.194238,0.194238,-9.970884,0.0,0.0,0.0,0.0,0.0,0.0,0.0,0.0,0.0
1636487984810855140,32772,1636487984808689834,,0.0,0.0,0.0,0.0,-1.0,0.0,0.0,0.0,0.0,0.0,0.0,0.0,0.0,0.0235619449019,0.0322885911619,0.0558505360638,0.0,0.0,0.0,0.0,0.0,0.0,0.0,0.0,0.0,0.874071,0.032373,-9.258678,0.0,0.0,0.0,0.0,0.0,0.0,0.0,0.0,0.0
1636487984829540165,32773,1636487984828735996,,0.0,0.0,0.0,0.0,-1.0,0.0,0.0,0.0,0.0,0.0,0.0,0.0,0.0,-0.00523598775598,-0.00261799387799,-0.00959931088597,0.0,0.0,0.0,0.0,0.0,0.0,0.0,0.0,0.0,1.197801,0.064746,-9.647154,0.0,0.0,0.0,0.0,0.0,0.0,0.0,0.0,0.0
1636487984851522054,32774,1636487984848867798,,0.0,0.0,0.0,0.0,-1.0,0.0,0.0,0.0,0.0,0.0,0.0,0.0,0.0,-0.0235619449019,-0.00436332312999,-0.012217304764,0.0,0.0,0.0,0.0,0.0,0.0,0.0,0.0,0.0,0.064746,0.194238,-9.938511,0.0,0.0,0.0,0.0,0.0,0.0,0.0,0.0,0.0
1636487984873635908,32775,1636487984869812744,,0.0,0.0,0.0,0.0,-1.0,0.0,0.0,0.0,0.0,0.0,0.0,0.0,0.0,-0.0514872129338,0.00349065850399,-0.0410152374219,0.0,0.0,0.0,0.0,0.0,0.0,0.0,0.0,0.0,-0.550341,0.0,-9.647154,0.0,0.0,0.0,0.0,0.0,0.0,0.0,0.0,0.0
1636487984893730605,32776,1636487984888908827,,0.0,0.0,0.0,0.0,-1.0,0.0,0.0,0.0,0.0,0.0,0.0,0.0,0.0,-0.0253072741539,0.00261799387799,-0.0305432619099,0.0,0.0,0.0,0.0,0.0,0.0,0.0,0.0,0.0,0.0,0.194238,-9.452916,0.0,0.0,0.0,0.0,0.0,0.0,0.0,0.0,0.0
1636487984911255665,32777,1636487984908677546,,0.0,0.0,0.0,0.0,-1.0,0.0,0.0,0.0,0.0,0.0,0.0,0.0,0.0,-0.00261799387799,0.00872664625997,0.0331612557879,0.0,0.0,0.0,0.0,0.0,0.0,0.0,0.0,0.0,0.550341,0.161865,-9.550035,0.0,0.0,0.0,0.0,0.0,0.0,0.0,0.0,0.0
1636487984933622947,32778,1636487984929008440,,0.0,0.0,0.0,0.0,-1.0,0.0,0.0,0.0,0.0,0.0,0.0,0.0,0.0,0.011344640138,-0.00436332312999,0.00872664625997,0.0,0.0,0.0,0.0,0.0,0.0,0.0,0.0,0.0,0.064746,0.32373,-9.873765,0.0,0.0,0.0,0.0,0.0,0.0,0.0,0.0,0.0
1636487984951252562,32779,1636487984948588157,,0.0,0.0,0.0,0.0,-1.0,0.0,0.0,0.0,0.0,0.0,0.0,0.0,0.0,0.00698131700798,0.00174532925199,0.0357792496659,0.0,0.0,0.0,0.0,0.0,0.0,0.0,0.0,0.0,0.420849,0.258984,-10.326987,0.0,0.0,0.0,0.0,0.0,0.0,0.0,0.0,0.0
1636487984970297078,32780,1636487984969079074,,0.0,0.0,0.0,0.0,-1.0,0.0,0.0,0.0,0.0,0.0,0.0,0.0,0.0,-0.0165806278939,0.0,-0.00959931088597,0.0,0.0,0.0,0.0,0.0,0.0,0.0,0.0,0.0,-0.064746,-0.161865,-9.226305,0.0,0.0,0.0,0.0,0.0,0.0,0.0,0.0,0.0
1636487984990931213,32781,1636487984988751036,,0.0,0.0,0.0,0.0,-1.0,0.0,0.0,0.0,0.0,0.0,0.0,0.0,0.0,-0.0366519142919,0.010471975512,-0.0410152374219,0.0,0.0,0.0,0.0,0.0,0.0,0.0,0.0,0.0,0.0,-0.226611,-9.841392,0.0,0.0,0.0,0.0,0.0,0.0,0.0,0.0,0.0
1636487985010302834,32782,1636487985008734592,,0.0,0.0,0.0,0.0,-1.0,0.0,0.0,0.0,0.0,0.0,0.0,0.0,0.0,-0.013962634016,0.0165806278939,-0.0392699081699,0.0,0.0,0.0,0.0,0.0,0.0,0.0,0.0,0.0,0.388476,0.097119,-9.582408,0.0,0.0,0.0,0.0,0.0,0.0,0.0,0.0,0.0
1636487985032166821,32783,1636487985029044208,,0.0,0.0,0.0,0.0,-1.0,0.0,0.0,0.0,0.0,0.0,0.0,0.0,0.0,0.011344640138,-0.00610865238198,-0.0157079632679,0.0,0.0,0.0,0.0,0.0,0.0,0.0,0.0,0.0,-0.356103,0.582714,-9.06444,0.0,0.0,0.0,0.0,0.0,0.0,0.0,0.0,0.0
1636487985052140143,32784,1636487985048729599,,0.0,0.0,0.0,0.0,-1.0,0.0,0.0,0.0,0.0,0.0,0.0,0.0,0.0,0.0349065850399,-0.00610865238198,0.0270526034059,0.0,0.0,0.0,0.0,0.0,0.0,0.0,0.0,0.0,0.194238,0.356103,-10.100376,0.0,0.0,0.0,0.0,0.0,0.0,0.0,0.0,0.0
1636487985073218544,32785,1636487985069064771,,0.0,0.0,0.0,0.0,-1.0,0.0,0.0,0.0,0.0,0.0,0.0,0.0,0.0,0.00349065850399,0.0,-0.01308996939,0.0,0.0,0.0,0.0,0.0,0.0,0.0,0.0,0.0,0.32373,0.032373,-9.161559,0.0,0.0,0.0,0.0,0.0,0.0,0.0,0.0,0.0
1636487985091682717,32786,1636487985088746329,,0.0,0.0,0.0,0.0,-1.0,0.0,0.0,0.0,0.0,0.0,0.0,0.0,0.0,-0.01308996939,-0.00436332312999,-0.0349065850399,0.0,0.0,0.0,0.0,0.0,0.0,0.0,0.0,0.0,0.485595,0.032373,-9.485289,0.0,0.0,0.0,0.0,0.0,0.0,0.0,0.0,0.0
1636487985111230956,32787,1636487985108622261,,0.0,0.0,0.0,0.0,-1.0,0.0,0.0,0.0,0.0,0.0,0.0,0.0,0.0,-0.0462512251778,0.00523598775598,-0.0750491578358,0.0,0.0,0.0,0.0,0.0,0.0,0.0,0.0,0.0,0.291357,-0.194238,-9.841392,0.0,0.0,0.0,0.0,0.0,0.0,0.0,0.0,0.0
1636487985134423060,32788,1636487985129345915,,0.0,0.0,0.0,0.0,-1.0,0.0,0.0,0.0,0.0,0.0,0.0,0.0,0.0,-0.0253072741539,0.00261799387799,-0.0715584993318,0.0,0.0,0.0,0.0,0.0,0.0,0.0,0.0,0.0,0.453222,0.064746,-9.614781,0.0,0.0,0.0,0.0,0.0,0.0,0.0,0.0,0.0
1636487985152373189,32789,1636487985148736051,,0.0,0.0,0.0,0.0,-1.0,0.0,0.0,0.0,0.0,0.0,0.0,0.0,0.0,0.0209439510239,-0.0165806278939,-0.000872664625997,0.0,0.0,0.0,0.0,0.0,0.0,0.0,0.0,0.0,-0.32373,0.129492,-9.485289,0.0,0.0,0.0,0.0,0.0,0.0,0.0,0.0,0.0
1636487985172968577,32790,1636487985169337819,,0.0,0.0,0.0,0.0,-1.0,0.0,0.0,0.0,0.0,0.0,0.0,0.0,0.0,0.0244346095279,-0.00174532925199,0.0314159265359,0.0,0.0,0.0,0.0,0.0,0.0,0.0,0.0,0.0,0.0,0.744579,-9.938511,0.0,0.0,0.0,0.0,0.0,0.0,0.0,0.0,0.0
1636487985191897741,32791,1636487985188822582,,0.0,0.0,0.0,0.0,-1.0,0.0,0.0,0.0,0.0,0.0,0.0,0.0,0.0,0.000872664625997,0.0,0.0558505360638,0.0,0.0,0.0,0.0,0.0,0.0,0.0,0.0,0.0,0.809325,0.388476,-9.452916,0.0,0.0,0.0,0.0,0.0,0.0,0.0,0.0,0.0
1636487985210605693,32792,1636487985208822880,,0.0,0.0,0.0,0.0,-1.0,0.0,0.0,0.0,0.0,0.0,0.0,0.0,0.0,-0.00174532925199,-0.0174532925199,-0.0366519142919,0.0,0.0,0.0,0.0,0.0,0.0,0.0,0.0,0.0,-0.32373,0.097119,-9.355797,0.0,0.0,0.0,0.0,0.0,0.0,0.0,0.0,0.0
1636487985234575674,32793,1636487985229214905,,0.0,0.0,0.0,0.0,-1.0,0.0,0.0,0.0,0.0,0.0,0.0,0.0,0.0,-0.0235619449019,0.0270526034059,-0.0706858347058,0.0,0.0,0.0,0.0,0.0,0.0,0.0,0.0,0.0,0.097119,0.161865,-10.262241,0.0,0.0,0.0,0.0,0.0,0.0,0.0,0.0,0.0
1636487985253487836,32794,1636487985249139164,,0.0,0.0,0.0,0.0,-1.0,0.0,0.0,0.0,0.0,0.0,0.0,0.0,0.0,-0.00261799387799,-0.00261799387799,-0.0253072741539,0.0,0.0,0.0,0.0,0.0,0.0,0.0,0.0,0.0,-0.582714,-0.258984,-8.934948,0.0,0.0,0.0,0.0,0.0,0.0,0.0,0.0,0.0
1636487985272832879,32795,1636487985268989351,,0.0,0.0,0.0,0.0,-1.0,0.0,0.0,0.0,0.0,0.0,0.0,0.0,0.0,0.00698131700798,-0.00174532925199,-0.0349065850399,0.0,0.0,0.0,0.0,0.0,0.0,0.0,0.0,0.0,-0.258984,0.0,-9.550035,0.0,0.0,0.0,0.0,0.0,0.0,0.0,0.0,0.0
1636487985292498039,32796,1636487985288849309,,0.0,0.0,0.0,0.0,-1.0,0.0,0.0,0.0,0.0,0.0,0.0,0.0,0.0,0.0383972435439,0.00698131700798,0.0514872129338,0.0,0.0,0.0,0.0,0.0,0.0,0.0,0.0,0.0,1.230174,0.744579,-10.003257,0.0,0.0,0.0,0.0,0.0,0.0,0.0,0.0,0.0
1636487985312726912,32797,1636487985308775674,,0.0,0.0,0.0,0.0,-1.0,0.0,0.0,0.0,0.0,0.0,0.0,0.0,0.0,0.0270526034059,-0.00523598775598,0.0663225115758,0.0,0.0,0.0,0.0,0.0,0.0,0.0,0.0,0.0,0.517968,0.0,-9.06444,0.0,0.0,0.0,0.0,0.0,0.0,0.0,0.0,0.0
1636487985334151907,32798,1636487985329073334,,0.0,0.0,0.0,0.0,-1.0,0.0,0.0,0.0,0.0,0.0,0.0,0.0,0.0,0.00872664625997,0.0,-0.011344640138,0.0,0.0,0.0,0.0,0.0,0.0,0.0,0.0,0.0,0.453222,-0.097119,-10.068003,0.0,0.0,0.0,0.0,0.0,0.0,0.0,0.0,0.0
1636487985351445296,32799,1636487985348751249,,0.0,0.0,0.0,0.0,-1.0,0.0,0.0,0.0,0.0,0.0,0.0,0.0,0.0,-0.00785398163397,0.00349065850399,-0.0174532925199,0.0,0.0,0.0,0.0,0.0,0.0,0.0,0.0,0.0,-0.550341,0.291357,-9.582408,0.0,0.0,0.0,0.0,0.0,0.0,0.0,0.0,0.0
1636487985371033435,32800,1636487985369102331,,0.0,0.0,0.0,0.0,-1.0,0.0,0.0,0.0,0.0,0.0,0.0,0.0,0.0,-0.0305432619099,0.00174532925199,-0.0157079632679,0.0,0.0,0.0,0.0,0.0,0.0,0.0,0.0,0.0,0.161865,-0.097119,-9.452916,0.0,0.0,0.0,0.0,0.0,0.0,0.0,0.0,0.0
1636487985392588835,32801,1636487985388691651,,0.0,0.0,0.0,0.0,-1.0,0.0,0.0,0.0,0.0,0.0,0.0,0.0,0.0,-0.00174532925199,0.00610865238198,-0.0218166156499,0.0,0.0,0.0,0.0,0.0,0.0,0.0,0.0,0.0,0.712206,0.388476,-8.870202,0.0,0.0,0.0,0.0,0.0,0.0,0.0,0.0,0.0
1636487985412816162,32802,1636487985408860255,,0.0,0.0,0.0,0.0,-1.0,0.0,0.0,0.0,0.0,0.0,0.0,0.0,0.0,0.0523598775598,-0.013962634016,0.0663225115758,0.0,0.0,0.0,0.0,0.0,0.0,0.0,0.0,0.0,-0.356103,0.064746,-9.873765,0.0,0.0,0.0,0.0,0.0,0.0,0.0,0.0,0.0
1636487985431590932,32803,1636487985428907198,,0.0,0.0,0.0,0.0,-1.0,0.0,0.0,0.0,0.0,0.0,0.0,0.0,0.0,0.0,0.0157079632679,0.0497418836818,0.0,0.0,0.0,0.0,0.0,0.0,0.0,0.0,0.0,0.485595,-0.032373,-10.165122,0.0,0.0,0.0,0.0,0.0,0.0,0.0,0.0,0.0
1636487985452421644,32804,1636487985448857345,,0.0,0.0,0.0,0.0,-1.0,0.0,0.0,0.0,0.0,0.0,0.0,0.0,0.0,-0.0157079632679,-0.0261799387799,-0.0183259571459,0.0,0.0,0.0,0.0,0.0,0.0,0.0,0.0,0.0,0.420849,0.161865,-8.902575,0.0,0.0,0.0,0.0,0.0,0.0,0.0,0.0,0.0
1636487985472664928,32805,1636487985469061627,,0.0,0.0,0.0,0.0,-1.0,0.0,0.0,0.0,0.0,0.0,0.0,0.0,0.0,-0.0418879020479,-0.0270526034059,-0.00959931088597,0.0,0.0,0.0,0.0,0.0,0.0,0.0,0.0,0.0,-0.097119,-0.32373,-9.614781,0.0,0.0,0.0,0.0,0.0,0.0,0.0,0.0,0.0
1636487985494391614,32806,1636487985488663530,,0.0,0.0,0.0,0.0,-1.0,0.0,0.0,0.0,0.0,0.0,0.0,0.0,0.0,-0.0218166156499,0.0183259571459,-0.0872664625997,0.0,0.0,0.0,0.0,0.0,0.0,0.0,0.0,0.0,0.453222,0.129492,-10.068003,0.0,0.0,0.0,0.0,0.0,0.0,0.0,0.0,0.0
1636487985512224415,32807,1636487985508768073,,0.0,0.0,0.0,0.0,-1.0,0.0,0.0,0.0,0.0,0.0,0.0,0.0,0.0,-0.013962634016,0.00349065850399,-0.0436332312999,0.0,0.0,0.0,0.0,0.0,0.0,0.0,0.0,0.0,-0.161865,0.420849,-8.643591,0.0,0.0,0.0,0.0,0.0,0.0,0.0,0.0,0.0
1636487985532740022,32808,1636487985528757266,,0.0,0.0,0.0,0.0,-1.0,0.0,0.0,0.0,0.0,0.0,0.0,0.0,0.0,0.0331612557879,0.00261799387799,0.0375245789179,0.0,0.0,0.0,0.0,0.0,0.0,0.0,0.0,0.0,0.291357,0.388476,-9.938511,0.0,0.0,0.0,0.0,0.0,0.0,0.0,0.0,0.0
1636487985551260394,32809,1636487985548833965,,0.0,0.0,0.0,0.0,-1.0,0.0,0.0,0.0,0.0,0.0,0.0,0.0,0.0,0.013962634016,0.00174532925199,0.0523598775598,0.0,0.0,0.0,0.0,0.0,0.0,0.0,0.0,0.0,0.32373,-0.258984,-10.132749,0.0,0.0,0.0,0.0,0.0,0.0,0.0,0.0,0.0
1636487985571923082,32810,1636487985569075272,,0.0,0.0,0.0,0.0,-1.0,0.0,0.0,0.0,0.0,0.0,0.0,0.0,0.0,-0.0218166156499,0.010471975512,-0.0305432619099,0.0,0.0,0.0,0.0,0.0,0.0,0.0,0.0,0.0,0.906444,-0.258984,-9.258678,0.0,0.0,0.0,0.0,0.0,0.0,0.0,0.0,0.0
1636487985591928915,32811,1636487985588756230,,0.0,0.0,0.0,0.0,-1.0,0.0,0.0,0.0,0.0,0.0,0.0,0.0,0.0,-0.0340339204139,-0.0174532925199,-0.0488692190558,0.0,0.0,0.0,0.0,0.0,0.0,0.0,0.0,0.0,0.032373,0.129492,-9.809019,0.0,0.0,0.0,0.0,0.0,0.0,0.0,0.0,0.0
1636487985610402740,32812,1636487985608770823,,0.0,0.0,0.0,0.0,-1.0,0.0,0.0,0.0,0.0,0.0,0.0,0.0,0.0,-0.0401425727959,0.0165806278939,-0.0759218224618,0.0,0.0,0.0,0.0,0.0,0.0,0.0,0.0,0.0,-0.161865,0.388476,-10.229868,0.0,0.0,0.0,0.0,0.0,0.0,0.0,0.0,0.0
1636487985633276773,32813,1636487985628836341,,0.0,0.0,0.0,0.0,-1.0,0.0,0.0,0.0,0.0,0.0,0.0,0.0,0.0,-0.010471975512,-0.010471975512,0.00610865238198,0.0,0.0,0.0,0.0,0.0,0.0,0.0,0.0,0.0,-0.744579,0.194238,-8.74071,0.0,0.0,0.0,0.0,0.0,0.0,0.0,0.0,0.0
1636487985651591364,32814,1636487985648684447,,0.0,0.0,0.0,0.0,-1.0,0.0,0.0,0.0,0.0,0.0,0.0,0.0,0.0,0.0261799387799,0.010471975512,0.0541052068118,0.0,0.0,0.0,0.0,0.0,0.0,0.0,0.0,0.0,0.194238,0.356103,-9.776646,0.0,0.0,0.0,0.0,0.0,0.0,0.0,0.0,0.0
1636487985672565975,32815,1636487985668981206,,0.0,0.0,0.0,0.0,-1.0,0.0,0.0,0.0,0.0,0.0,0.0,0.0,0.0,0.0191986217719,0.00785398163397,0.0523598775598,0.0,0.0,0.0,0.0,0.0,0.0,0.0,0.0,0.0,0.809325,0.032373,-9.841392,0.0,0.0,0.0,0.0,0.0,0.0,0.0,0.0,0.0
1636487985692908265,32816,1636487985688773789,,0.0,0.0,0.0,0.0,-1.0,0.0,0.0,0.0,0.0,0.0,0.0,0.0,0.0,0.00174532925199,-0.0165806278939,0.00872664625997,0.0,0.0,0.0,0.0,0.0,0.0,0.0,0.0,0.0,0.258984,0.032373,-9.420543,0.0,0.0,0.0,0.0,0.0,0.0,0.0,0.0,0.0
1636487985711921346,32817,1636487985708762758,,0.0,0.0,0.0,0.0,-1.0,0.0,0.0,0.0,0.0,0.0,0.0,0.0,0.0,-0.0340339204139,-0.00959931088597,-0.0619591884458,0.0,0.0,0.0,0.0,0.0,0.0,0.0,0.0,0.0,0.097119,0.097119,-9.776646,0.0,0.0,0.0,0.0,0.0,0.0,0.0,0.0,0.0
1636487985732454032,32818,1636487985729140826,,0.0,0.0,0.0,0.0,-1.0,0.0,0.0,0.0,0.0,0.0,0.0,0.0,0.0,-0.0532325421858,-0.00174532925199,-0.0165806278939,0.0,0.0,0.0,0.0,0.0,0.0,0.0,0.0,0.0,-0.615087,0.129492,-9.193932,0.0,0.0,0.0,0.0,0.0,0.0,0.0,0.0,0.0
1636487985752513378,32819,1636487985749128428,,0.0,0.0,0.0,0.0,-1.0,0.0,0.0,0.0,0.0,0.0,0.0,0.0,0.0,-0.012217304764,0.0165806278939,-0.0305432619099,0.0,0.0,0.0,0.0,0.0,0.0,0.0,0.0,0.0,0.388476,0.0,-9.938511,0.0,0.0,0.0,0.0,0.0,0.0,0.0,0.0,0.0
1636487985773470141,32820,1636487985769066237,,0.0,0.0,0.0,0.0,-1.0,0.0,0.0,0.0,0.0,0.0,0.0,0.0,0.0,0.00872664625997,-0.01308996939,-0.00523598775598,0.0,0.0,0.0,0.0,0.0,0.0,0.0,0.0,0.0,0.32373,0.420849,-9.7119,0.0,0.0,0.0,0.0,0.0,0.0,0.0,0.0,0.0
1636487985792505188,32821,1636487985789745127,,0.0,0.0,0.0,0.0,-1.0,0.0,0.0,0.0,0.0,0.0,0.0,0.0,0.0,0.0253072741539,-0.0279252680319,0.0855211333477,0.0,0.0,0.0,0.0,0.0,0.0,0.0,0.0,0.0,-0.194238,0.258984,-9.938511,0.0,0.0,0.0,0.0,0.0,0.0,0.0,0.0,0.0
1636487985811095468,32822,1636487985808763770,,0.0,0.0,0.0,0.0,-1.0,0.0,0.0,0.0,0.0,0.0,0.0,0.0,0.0,0.00436332312999,0.0165806278939,0.0183259571459,0.0,0.0,0.0,0.0,0.0,0.0,0.0,0.0,0.0,0.485595,-0.582714,-10.35936,0.0,0.0,0.0,0.0,0.0,0.0,0.0,0.0,0.0
1636487985832469222,32823,1636487985829061476,,0.0,0.0,0.0,0.0,-1.0,0.0,0.0,0.0,0.0,0.0,0.0,0.0,0.0,-0.0523598775598,0.00698131700798,-0.0698131700798,0.0,0.0,0.0,0.0,0.0,0.0,0.0,0.0,0.0,0.32373,-0.161865,-9.323424,0.0,0.0,0.0,0.0,0.0,0.0,0.0,0.0,0.0
1636487985852016438,32824,1636487985849000135,,0.0,0.0,0.0,0.0,-1.0,0.0,0.0,0.0,0.0,0.0,0.0,0.0,0.0,-0.00523598775598,-0.0296705972839,-0.0418879020479,0.0,0.0,0.0,0.0,0.0,0.0,0.0,0.0,0.0,-0.161865,0.32373,-9.776646,0.0,0.0,0.0,0.0,0.0,0.0,0.0,0.0,0.0
1636487985873015794,32825,1636487985869206827,,0.0,0.0,0.0,0.0,-1.0,0.0,0.0,0.0,0.0,0.0,0.0,0.0,0.0,0.00610865238198,0.0270526034059,-0.011344640138,0.0,0.0,0.0,0.0,0.0,0.0,0.0,0.0,0.0,0.712206,0.226611,-10.003257,0.0,0.0,0.0,0.0,0.0,0.0,0.0,0.0,0.0
1636487985891666835,32826,1636487985888906435,,0.0,0.0,0.0,0.0,-1.0,0.0,0.0,0.0,0.0,0.0,0.0,0.0,0.0,0.0174532925199,0.000872664625997,-0.00261799387799,0.0,0.0,0.0,0.0,0.0,0.0,0.0,0.0,0.0,0.161865,0.258984,-8.902575,0.0,0.0,0.0,0.0,0.0,0.0,0.0,0.0,0.0
1636487985910681544,32827,1636487985908696897,,0.0,0.0,0.0,0.0,-1.0,0.0,0.0,0.0,0.0,0.0,0.0,0.0,0.0,0.0270526034059,-0.0357792496659,0.0637045176978,0.0,0.0,0.0,0.0,0.0,0.0,0.0,0.0,0.0,0.194238,0.032373,-10.068003,0.0,0.0,0.0,0.0,0.0,0.0,0.0,0.0,0.0
1636487985931095486,32828,1636487985928991440,,0.0,0.0,0.0,0.0,-1.0,0.0,0.0,0.0,0.0,0.0,0.0,0.0,0.0,0.00785398163397,0.0165806278939,0.00872664625997,0.0,0.0,0.0,0.0,0.0,0.0,0.0,0.0,0.0,0.615087,-0.485595,-9.938511,0.0,0.0,0.0,0.0,0.0,0.0,0.0,0.0,0.0
1636487985950836914,32829,1636487985948738768,,0.0,0.0,0.0,0.0,-1.0,0.0,0.0,0.0,0.0,0.0,0.0,0.0,0.0,-0.0340339204139,-0.0183259571459,-0.0663225115758,0.0,0.0,0.0,0.0,0.0,0.0,0.0,0.0,0.0,0.129492,0.0,-8.870202,0.0,0.0,0.0,0.0,0.0,0.0,0.0,0.0,0.0
1636487985972113953,32830,1636487985969075582,,0.0,0.0,0.0,0.0,-1.0,0.0,0.0,0.0,0.0,0.0,0.0,0.0,0.0,-0.0305432619099,-0.0174532925199,-0.0392699081699,0.0,0.0,0.0,0.0,0.0,0.0,0.0,0.0,0.0,-0.129492,0.356103,-10.003257,0.0,0.0,0.0,0.0,0.0,0.0,0.0,0.0,0.0
1636487985991287330,32831,1636487985988783980,,0.0,0.0,0.0,0.0,-1.0,0.0,0.0,0.0,0.0,0.0,0.0,0.0,0.0,-0.01308996939,0.012217304764,-0.0523598775598,0.0,0.0,0.0,0.0,0.0,0.0,0.0,0.0,0.0,-0.194238,0.388476,-9.776646,0.0,0.0,0.0,0.0,0.0,0.0,0.0,0.0,0.0
1636487986011040092,32832,1636487986008876718,,0.0,0.0,0.0,0.0,-1.0,0.0,0.0,0.0,0.0,0.0,0.0,0.0,0.0,0.0410152374219,0.013962634016,0.0,0.0,0.0,0.0,0.0,0.0,0.0,0.0,0.0,0.0,-0.097119,0.64746,-9.129186,0.0,0.0,0.0,0.0,0.0,0.0,0.0,0.0,0.0
1636487986033421239,32833,1636487986029117918,,0.0,0.0,0.0,0.0,-1.0,0.0,0.0,0.0,0.0,0.0,0.0,0.0,0.0,0.010471975512,0.0165806278939,0.0471238898038,0.0,0.0,0.0,0.0,0.0,0.0,0.0,0.0,0.0,0.776952,0.388476,-9.776646,0.0,0.0,0.0,0.0,0.0,0.0,0.0,0.0,0.0
1636487986053026183,32834,1636487986048885773,,0.0,0.0,0.0,0.0,-1.0,0.0,0.0,0.0,0.0,0.0,0.0,0.0,0.0,0.0,0.00698131700798,0.014835298642,0.0,0.0,0.0,0.0,0.0,0.0,0.0,0.0,0.0,0.420849,-0.161865,-8.999694,0.0,0.0,0.0,0.0,0.0,0.0,0.0,0.0,0.0
1636487986072978506,32835,1636487986069288991,,0.0,0.0,0.0,0.0,-1.0,0.0,0.0,0.0,0.0,0.0,0.0,0.0,0.0,-0.0253072741539,-0.00436332312999,-0.0488692190558,0.0,0.0,0.0,0.0,0.0,0.0,0.0,0.0,0.0,0.097119,-0.226611,-9.420543,0.0,0.0,0.0,0.0,0.0,0.0,0.0,0.0,0.0
1636487986093811573,32836,1636487986088834949,,0.0,0.0,0.0,0.0,-1.0,0.0,0.0,0.0,0.0,0.0,0.0,0.0,0.0,-0.0226892802759,0.00261799387799,-0.0174532925199,0.0,0.0,0.0,0.0,0.0,0.0,0.0,0.0,0.0,0.097119,-0.226611,-10.068003,0.0,0.0,0.0,0.0,0.0,0.0,0.0,0.0,0.0
1636487986113095706,32837,1636487986108787013,,0.0,0.0,0.0,0.0,-1.0,0.0,0.0,0.0,0.0,0.0,0.0,0.0,0.0,-0.011344640138,-0.00610865238198,0.00261799387799,0.0,0.0,0.0,0.0,0.0,0.0,0.0,0.0,0.0,-0.291357,0.0,-8.999694,0.0,0.0,0.0,0.0,0.0,0.0,0.0,0.0,0.0
1636487986130912585,32838,1636487986128968442,,0.0,0.0,0.0,0.0,-1.0,0.0,0.0,0.0,0.0,0.0,0.0,0.0,0.0,0.0392699081699,-0.01308996939,-0.00436332312999,0.0,0.0,0.0,0.0,0.0,0.0,0.0,0.0,0.0,0.517968,0.453222,-10.132749,0.0,0.0,0.0,0.0,0.0,0.0,0.0,0.0,0.0
1636487986151572474,32839,1636487986148798891,,0.0,0.0,0.0,0.0,-1.0,0.0,0.0,0.0,0.0,0.0,0.0,0.0,0.0,0.00959931088597,-0.00785398163397,0.0706858347058,0.0,0.0,0.0,0.0,0.0,0.0,0.0,0.0,0.0,0.615087,0.517968,-10.229868,0.0,0.0,0.0,0.0,0.0,0.0,0.0,0.0,0.0
1636487986172736915,32840,1636487986169733669,,0.0,0.0,0.0,0.0,-1.0,0.0,0.0,0.0,0.0,0.0,0.0,0.0,0.0,0.00174532925199,-0.00698131700798,0.0322885911619,0.0,0.0,0.0,0.0,0.0,0.0,0.0,0.0,0.0,0.258984,0.0,-9.38817,0.0,0.0,0.0,0.0,0.0,0.0,0.0,0.0,0.0
1636487986193646011,32841,1636487986189552847,,0.0,0.0,0.0,0.0,-1.0,0.0,0.0,0.0,0.0,0.0,0.0,0.0,0.0,-0.0418879020479,0.0,-0.0340339204139,0.0,0.0,0.0,0.0,0.0,0.0,0.0,0.0,0.0,0.0,-0.032373,-9.7119,0.0,0.0,0.0,0.0,0.0,0.0,0.0,0.0,0.0
1636487986212293804,32842,1636487986208868949,,0.0,0.0,0.0,0.0,-1.0,0.0,0.0,0.0,0.0,0.0,0.0,0.0,0.0,-0.0296705972839,0.00610865238198,-0.0514872129338,0.0,0.0,0.0,0.0,0.0,0.0,0.0,0.0,0.0,-0.258984,-0.194238,-9.647154,0.0,0.0,0.0,0.0,0.0,0.0,0.0,0.0,0.0
1636487986233338540,32843,1636487986229084889,,0.0,0.0,0.0,0.0,-1.0,0.0,0.0,0.0,0.0,0.0,0.0,0.0,0.0,-0.012217304764,0.00959931088597,-0.0471238898038,0.0,0.0,0.0,0.0,0.0,0.0,0.0,0.0,0.0,0.0,0.129492,-9.129186,0.0,0.0,0.0,0.0,0.0,0.0,0.0,0.0,0.0
1636487986252591080,32844,1636487986248751442,,0.0,0.0,0.0,0.0,-1.0,0.0,0.0,0.0,0.0,0.0,0.0,0.0,0.0,0.0279252680319,-0.00174532925199,0.0383972435439,0.0,0.0,0.0,0.0,0.0,0.0,0.0,0.0,0.0,0.032373,0.582714,-9.582408,0.0,0.0,0.0,0.0,0.0,0.0,0.0,0.0,0.0
1636487986271883089,32845,1636487986269155516,,0.0,0.0,0.0,0.0,-1.0,0.0,0.0,0.0,0.0,0.0,0.0,0.0,0.0,-0.000872664625997,0.0218166156499,0.0776671517137,0.0,0.0,0.0,0.0,0.0,0.0,0.0,0.0,0.0,0.291357,0.194238,-9.744273,0.0,0.0,0.0,0.0,0.0,0.0,0.0,0.0,0.0
1636487986292914906,32846,1636487986288791964,,0.0,0.0,0.0,0.0,-1.0,0.0,0.0,0.0,0.0,0.0,0.0,0.0,0.0,-0.00698131700798,0.00523598775598,-0.00698131700798,0.0,0.0,0.0,0.0,0.0,0.0,0.0,0.0,0.0,0.258984,-0.032373,-9.420543,0.0,0.0,0.0,0.0,0.0,0.0,0.0,0.0,0.0
1636487986312248831,32847,1636487986308837534,,0.0,0.0,0.0,0.0,-1.0,0.0,0.0,0.0,0.0,0.0,0.0,0.0,0.0,-0.0392699081699,-0.00349065850399,-0.0593411945678,0.0,0.0,0.0,0.0,0.0,0.0,0.0,0.0,0.0,0.517968,0.064746,-9.679527,0.0,0.0,0.0,0.0,0.0,0.0,0.0,0.0,0.0
1636487986332358197,32848,1636487986329218630,,0.0,0.0,0.0,0.0,-1.0,0.0,0.0,0.0,0.0,0.0,0.0,0.0,0.0,-0.0253072741539,0.00785398163397,-0.0890117918517,0.0,0.0,0.0,0.0,0.0,0.0,0.0,0.0,0.0,-0.064746,0.129492,-9.323424,0.0,0.0,0.0,0.0,0.0,0.0,0.0,0.0,0.0
1636487986350750923,32849,1636487986348956478,,0.0,0.0,0.0,0.0,-1.0,0.0,0.0,0.0,0.0,0.0,0.0,0.0,0.0,-0.010471975512,0.00785398163397,-0.0157079632679,0.0,0.0,0.0,0.0,0.0,0.0,0.0,0.0,0.0,-0.485595,0.226611,-9.452916,0.0,0.0,0.0,0.0,0.0,0.0,0.0,0.0,0.0
1636487986373523327,32850,1636487986369308137,,0.0,0.0,0.0,0.0,-1.0,0.0,0.0,0.0,0.0,0.0,0.0,0.0,0.0,0.0445058959259,0.0174532925199,0.0541052068118,0.0,0.0,0.0,0.0,0.0,0.0,0.0,0.0,0.0,0.032373,0.32373,-9.938511,0.0,0.0,0.0,0.0,0.0,0.0,0.0,0.0,0.0
1636487986391980873,32851,1636487986388869976,,0.0,0.0,0.0,0.0,-1.0,0.0,0.0,0.0,0.0,0.0,0.0,0.0,0.0,0.0410152374219,0.010471975512,0.0340339204139,0.0,0.0,0.0,0.0,0.0,0.0,0.0,0.0,0.0,0.679833,0.097119,-9.420543,0.0,0.0,0.0,0.0,0.0,0.0,0.0,0.0,0.0
1636487986412329137,32852,1636487986409199689,,0.0,0.0,0.0,0.0,-1.0,0.0,0.0,0.0,0.0,0.0,0.0,0.0,0.0,-0.00436332312999,-0.00436332312999,0.00872664625997,0.0,0.0,0.0,0.0,0.0,0.0,0.0,0.0,0.0,0.550341,0.226611,-9.679527,0.0,0.0,0.0,0.0,0.0,0.0,0.0,0.0,0.0
1636487986432506037,32853,1636487986429126135,,0.0,0.0,0.0,0.0,-1.0,0.0,0.0,0.0,0.0,0.0,0.0,0.0,0.0,-0.0296705972839,0.00436332312999,-0.0767944870878,0.0,0.0,0.0,0.0,0.0,0.0,0.0,0.0,0.0,0.0,0.226611,-9.161559,0.0,0.0,0.0,0.0,0.0,0.0,0.0,0.0,0.0
1636487986451876758,32854,1636487986448864583,,0.0,0.0,0.0,0.0,-1.0,0.0,0.0,0.0,0.0,0.0,0.0,0.0,0.0,-0.0322885911619,-0.014835298642,-0.0829031394697,0.0,0.0,0.0,0.0,0.0,0.0,0.0,0.0,0.0,-0.356103,0.161865,-9.38817,0.0,0.0,0.0,0.0,0.0,0.0,0.0,0.0,0.0
1636487986474140254,32855,1636487986469514749,,0.0,0.0,0.0,0.0,-1.0,0.0,0.0,0.0,0.0,0.0,0.0,0.0,0.0,-0.01308996939,0.00785398163397,-0.0165806278939,0.0,0.0,0.0,0.0,0.0,0.0,0.0,0.0,0.0,-0.712206,0.194238,-9.38817,0.0,0.0,0.0,0.0,0.0,0.0,0.0,0.0,0.0
1636487986491856023,32856,1636487986488724001,,0.0,0.0,0.0,0.0,-1.0,0.0,0.0,0.0,0.0,0.0,0.0,0.0,0.0,0.0253072741539,0.0,0.0183259571459,0.0,0.0,0.0,0.0,0.0,0.0,0.0,0.0,0.0,0.226611,0.097119,-9.906138,0.0,0.0,0.0,0.0,0.0,0.0,0.0,0.0,0.0
1636487986510654774,32857,1636487986508764223,,0.0,0.0,0.0,0.0,-1.0,0.0,0.0,0.0,0.0,0.0,0.0,0.0,0.0,0.0200712863979,0.014835298642,0.0445058959259,0.0,0.0,0.0,0.0,0.0,0.0,0.0,0.0,0.0,0.615087,-0.032373,-9.873765,0.0,0.0,0.0,0.0,0.0,0.0,0.0,0.0,0.0
1636487986534235239,32858,1636487986529560438,,0.0,0.0,0.0,0.0,-1.0,0.0,0.0,0.0,0.0,0.0,0.0,0.0,0.0,0.011344640138,-0.00785398163397,-0.00436332312999,0.0,0.0,0.0,0.0,0.0,0.0,0.0,0.0,0.0,0.64746,0.258984,-9.809019,0.0,0.0,0.0,0.0,0.0,0.0,0.0,0.0,0.0
1636487986551980823,32859,1636487986548780016,,0.0,0.0,0.0,0.0,-1.0,0.0,0.0,0.0,0.0,0.0,0.0,0.0,0.0,-0.0253072741539,-0.012217304764,-0.0392699081699,0.0,0.0,0.0,0.0,0.0,0.0,0.0,0.0,0.0,-0.32373,0.356103,-9.161559,0.0,0.0,0.0,0.0,0.0,0.0,0.0,0.0,0.0
1636487986572619660,32860,1636487986569858764,,0.0,0.0,0.0,0.0,-1.0,0.0,0.0,0.0,0.0,0.0,0.0,0.0,0.0,-0.0296705972839,0.00523598775598,-0.0698131700798,0.0,0.0,0.0,0.0,0.0,0.0,0.0,0.0,0.0,-0.64746,0.291357,-9.647154,0.0,0.0,0.0,0.0,0.0,0.0,0.0,0.0,0.0
1636487986591289029,32861,1636487986588782514,,0.0,0.0,0.0,0.0,-1.0,0.0,0.0,0.0,0.0,0.0,0.0,0.0,0.0,-0.010471975512,0.0314159265359,-0.0296705972839,0.0,0.0,0.0,0.0,0.0,0.0,0.0,0.0,0.0,0.161865,0.194238,-10.03563,0.0,0.0,0.0,0.0,0.0,0.0,0.0,0.0,0.0
1636487986612789840,32862,1636487986609011279,,0.0,0.0,0.0,0.0,-1.0,0.0,0.0,0.0,0.0,0.0,0.0,0.0,0.0,0.0287979326579,-0.00349065850399,0.0209439510239,0.0,0.0,0.0,0.0,0.0,0.0,0.0,0.0,0.0,0.420849,0.226611,-9.258678,0.0,0.0,0.0,0.0,0.0,0.0,0.0,0.0,0.0
1636487986632692100,32863,1636487986629040119,,0.0,0.0,0.0,0.0,-1.0,0.0,0.0,0.0,0.0,0.0,0.0,0.0,0.0,0.0479965544298,-0.0174532925199,0.0794124809657,0.0,0.0,0.0,0.0,0.0,0.0,0.0,0.0,0.0,0.097119,0.194238,-10.03563,0.0,0.0,0.0,0.0,0.0,0.0,0.0,0.0,0.0
1636487986651675682,32864,1636487986649093284,,0.0,0.0,0.0,0.0,-1.0,0.0,0.0,0.0,0.0,0.0,0.0,0.0,0.0,0.010471975512,0.0261799387799,0.0654498469498,0.0,0.0,0.0,0.0,0.0,0.0,0.0,0.0,0.0,0.32373,-0.032373,-9.873765,0.0,0.0,0.0,0.0,0.0,0.0,0.0,0.0,0.0
1636487986672316779,32865,1636487986669101950,,0.0,0.0,0.0,0.0,-1.0,0.0,0.0,0.0,0.0,0.0,0.0,0.0,0.0,-0.0183259571459,-0.00261799387799,-0.0174532925199,0.0,0.0,0.0,0.0,0.0,0.0,0.0,0.0,0.0,0.064746,-0.129492,-9.226305,0.0,0.0,0.0,0.0,0.0,0.0,0.0,0.0,0.0
1636487986691443753,32866,1636487986688798701,,0.0,0.0,0.0,0.0,-1.0,0.0,0.0,0.0,0.0,0.0,0.0,0.0,0.0,-0.0383972435439,-0.0157079632679,-0.0925024503557,0.0,0.0,0.0,0.0,0.0,0.0,0.0,0.0,0.0,0.388476,0.097119,-9.647154,0.0,0.0,0.0,0.0,0.0,0.0,0.0,0.0,0.0
1636487986712374122,32867,1636487986709142508,,0.0,0.0,0.0,0.0,-1.0,0.0,0.0,0.0,0.0,0.0,0.0,0.0,0.0,-0.014835298642,0.00785398163397,-0.0602138591938,0.0,0.0,0.0,0.0,0.0,0.0,0.0,0.0,0.0,-0.161865,0.388476,-9.550035,0.0,0.0,0.0,0.0,0.0,0.0,0.0,0.0,0.0
1636487986732215789,32868,1636487986729287977,,0.0,0.0,0.0,0.0,-1.0,0.0,0.0,0.0,0.0,0.0,0.0,0.0,0.0,0.0279252680319,-0.00698131700798,0.0532325421858,0.0,0.0,0.0,0.0,0.0,0.0,0.0,0.0,0.0,-0.550341,0.356103,-9.485289,0.0,0.0,0.0,0.0,0.0,0.0,0.0,0.0,0.0
1636487986751734224,32869,1636487986749317064,,0.0,0.0,0.0,0.0,-1.0,0.0,0.0,0.0,0.0,0.0,0.0,0.0,0.0,0.0191986217719,0.0261799387799,0.0706858347058,0.0,0.0,0.0,0.0,0.0,0.0,0.0,0.0,0.0,0.0,0.356103,-10.326987,0.0,0.0,0.0,0.0,0.0,0.0,0.0,0.0,0.0
1636487986772422844,32870,1636487986769080049,,0.0,0.0,0.0,0.0,-1.0,0.0,0.0,0.0,0.0,0.0,0.0,0.0,0.0,0.0261799387799,-0.000872664625997,0.0174532925199,0.0,0.0,0.0,0.0,0.0,0.0,0.0,0.0,0.0,0.453222,0.356103,-9.258678,0.0,0.0,0.0,0.0,0.0,0.0,0.0,0.0,0.0
1636487986792496543,32871,1636487986788777605,,0.0,0.0,0.0,0.0,-1.0,0.0,0.0,0.0,0.0,0.0,0.0,0.0,0.0,-0.0253072741539,-0.00698131700798,-0.0610865238198,0.0,0.0,0.0,0.0,0.0,0.0,0.0,0.0,0.0,0.420849,-0.258984,-9.38817,0.0,0.0,0.0,0.0,0.0,0.0,0.0,0.0,0.0
1636487986813056112,32872,1636487986809148503,,0.0,0.0,0.0,0.0,-1.0,0.0,0.0,0.0,0.0,0.0,0.0,0.0,0.0,-0.0270526034059,0.00174532925199,-0.0855211333477,0.0,0.0,0.0,0.0,0.0,0.0,0.0,0.0,0.0,-0.032373,-0.097119,-9.452916,0.0,0.0,0.0,0.0,0.0,0.0,0.0,0.0,0.0
1636487986833282083,32873,1636487986828902067,,0.0,0.0,0.0,0.0,-1.0,0.0,0.0,0.0,0.0,0.0,0.0,0.0,0.0,-0.0183259571459,0.0165806278939,-0.0357792496659,0.0,0.0,0.0,0.0,0.0,0.0,0.0,0.0,0.0,-0.32373,0.032373,-9.291051,0.0,0.0,0.0,0.0,0.0,0.0,0.0,0.0,0.0
1636487986851945202,32874,1636487986849016053,,0.0,0.0,0.0,0.0,-1.0,0.0,0.0,0.0,0.0,0.0,0.0,0.0,0.0,0.0191986217719,0.00872664625997,0.0200712863979,0.0,0.0,0.0,0.0,0.0,0.0,0.0,0.0,0.0,0.032373,0.064746,-10.229868,0.0,0.0,0.0,0.0,0.0,0.0,0.0,0.0,0.0
1636487986871251729,32875,1636487986869280058,,0.0,0.0,0.0,0.0,-1.0,0.0,0.0,0.0,0.0,0.0,0.0,0.0,0.0,0.010471975512,0.0200712863979,0.0157079632679,0.0,0.0,0.0,0.0,0.0,0.0,0.0,0.0,0.0,0.388476,0.064746,-9.873765,0.0,0.0,0.0,0.0,0.0,0.0,0.0,0.0,0.0
1636487986894004870,32876,1636487986889109869,,0.0,0.0,0.0,0.0,-1.0,0.0,0.0,0.0,0.0,0.0,0.0,0.0,0.0,0.000872664625997,0.0,-0.0366519142919,0.0,0.0,0.0,0.0,0.0,0.0,0.0,0.0,0.0,0.744579,0.129492,-9.485289,0.0,0.0,0.0,0.0,0.0,0.0,0.0,0.0,0.0
1636487986912055460,32877,1636487986908839545,,0.0,0.0,0.0,0.0,-1.0,0.0,0.0,0.0,0.0,0.0,0.0,0.0,0.0,-0.00436332312999,-0.00698131700798,-0.01308996939,0.0,0.0,0.0,0.0,0.0,0.0,0.0,0.0,0.0,-0.032373,0.032373,-9.517662,0.0,0.0,0.0,0.0,0.0,0.0,0.0,0.0,0.0
1636487986933901298,32878,1636487986929326521,,0.0,0.0,0.0,0.0,-1.0,0.0,0.0,0.0,0.0,0.0,0.0,0.0,0.0,-0.0575958653158,-0.011344640138,-0.0174532925199,0.0,0.0,0.0,0.0,0.0,0.0,0.0,0.0,0.0,-0.453222,0.097119,-9.7119,0.0,0.0,0.0,0.0,0.0,0.0,0.0,0.0,0.0
1636487986952384449,32879,1636487986948891955,,0.0,0.0,0.0,0.0,-1.0,0.0,0.0,0.0,0.0,0.0,0.0,0.0,0.0,-0.00959931088597,0.0305432619099,-0.0663225115758,0.0,0.0,0.0,0.0,0.0,0.0,0.0,0.0,0.0,0.161865,0.226611,-9.420543,0.0,0.0,0.0,0.0,0.0,0.0,0.0,0.0,0.0
1636487986973337212,32880,1636487986970217871,,0.0,0.0,0.0,0.0,-1.0,0.0,0.0,0.0,0.0,0.0,0.0,0.0,0.0,-0.00872664625997,-0.0157079632679,-0.00349065850399,0.0,0.0,0.0,0.0,0.0,0.0,0.0,0.0,0.0,0.129492,0.420849,-9.420543,0.0,0.0,0.0,0.0,0.0,0.0,0.0,0.0,0.0
1636487986994626498,32881,1636487986989323452,,0.0,0.0,0.0,0.0,-1.0,0.0,0.0,0.0,0.0,0.0,0.0,0.0,0.0,0.0305432619099,-0.00261799387799,0.0567232006898,0.0,0.0,0.0,0.0,0.0,0.0,0.0,0.0,0.0,0.064746,0.291357,-9.970884,0.0,0.0,0.0,0.0,0.0,0.0,0.0,0.0,0.0
1636487987009102067,32882,1636487987008500459,,0.0,0.0,0.0,0.0,-1.0,0.0,0.0,0.0,0.0,0.0,0.0,0.0,0.0,0.00785398163397,0.0209439510239,0.0305432619099,0.0,0.0,0.0,0.0,0.0,0.0,0.0,0.0,0.0,0.32373,0.194238,-9.485289,0.0,0.0,0.0,0.0,0.0,0.0,0.0,0.0,0.0
1636487987032951143,32883,1636487987029153979,,0.0,0.0,0.0,0.0,-1.0,0.0,0.0,0.0,0.0,0.0,0.0,0.0,0.0,-0.010471975512,-0.0200712863979,0.0366519142919,0.0,0.0,0.0,0.0,0.0,0.0,0.0,0.0,0.0,-0.420849,0.194238,-9.323424,0.0,0.0,0.0,0.0,0.0,0.0,0.0,0.0,0.0
1636487987052545080,32884,1636487987049537597,,0.0,0.0,0.0,0.0,-1.0,0.0,0.0,0.0,0.0,0.0,0.0,0.0,0.0,-0.0340339204139,0.0165806278939,-0.0174532925199,0.0,0.0,0.0,0.0,0.0,0.0,0.0,0.0,0.0,0.161865,0.032373,-9.776646,0.0,0.0,0.0,0.0,0.0,0.0,0.0,0.0,0.0
1636487987072876698,32885,1636487987069030302,,0.0,0.0,0.0,0.0,-1.0,0.0,0.0,0.0,0.0,0.0,0.0,0.0,0.0,-0.013962634016,0.0200712863979,-0.0907571211037,0.0,0.0,0.0,0.0,0.0,0.0,0.0,0.0,0.0,0.258984,0.453222,-9.226305,0.0,0.0,0.0,0.0,0.0,0.0,0.0,0.0,0.0
1636487987091544363,32886,1636487987088943488,,0.0,0.0,0.0,0.0,-1.0,0.0,0.0,0.0,0.0,0.0,0.0,0.0,0.0,0.0209439510239,-0.00349065850399,-0.00523598775598,0.0,0.0,0.0,0.0,0.0,0.0,0.0,0.0,0.0,0.226611,0.550341,-9.38817,0.0,0.0,0.0,0.0,0.0,0.0,0.0,0.0,0.0
1636487987111218083,32887,1636487987108808169,,0.0,0.0,0.0,0.0,-1.0,0.0,0.0,0.0,0.0,0.0,0.0,0.0,0.0,0.0305432619099,0.00610865238198,0.0628318530718,0.0,0.0,0.0,0.0,0.0,0.0,0.0,0.0,0.0,0.161865,0.194238,-10.003257,0.0,0.0,0.0,0.0,0.0,0.0,0.0,0.0,0.0
1636487987134644589,32888,1636487987130180988,,0.0,0.0,0.0,0.0,-1.0,0.0,0.0,0.0,0.0,0.0,0.0,0.0,0.0,0.012217304764,0.0270526034059,0.0628318530718,0.0,0.0,0.0,0.0,0.0,0.0,0.0,0.0,0.0,0.356103,0.194238,-9.679527,0.0,0.0,0.0,0.0,0.0,0.0,0.0,0.0,0.0
1636487987152189664,32889,1636487987148910412,,0.0,0.0,0.0,0.0,-1.0,0.0,0.0,0.0,0.0,0.0,0.0,0.0,0.0,-0.00959931088597,0.014835298642,0.0218166156499,0.0,0.0,0.0,0.0,0.0,0.0,0.0,0.0,0.0,0.712206,-0.258984,-9.485289,0.0,0.0,0.0,0.0,0.0,0.0,0.0,0.0,0.0
1636487987172037117,32890,1636487987169202812,,0.0,0.0,0.0,0.0,-1.0,0.0,0.0,0.0,0.0,0.0,0.0,0.0,0.0,-0.0366519142919,0.00349065850399,-0.0689405054538,0.0,0.0,0.0,0.0,0.0,0.0,0.0,0.0,0.0,0.226611,-0.194238,-9.647154,0.0,0.0,0.0,0.0,0.0,0.0,0.0,0.0,0.0
1636487987192058437,32891,1636487987189013581,,0.0,0.0,0.0,0.0,-1.0,0.0,0.0,0.0,0.0,0.0,0.0,0.0,0.0,-0.0244346095279,0.0,-0.0846484687217,0.0,0.0,0.0,0.0,0.0,0.0,0.0,0.0,0.0,-0.064746,0.453222,-9.355797,0.0,0.0,0.0,0.0,0.0,0.0,0.0,0.0,0.0
1636487987212598705,32892,1636487987208967742,,0.0,0.0,0.0,0.0,-1.0,0.0,0.0,0.0,0.0,0.0,0.0,0.0,0.0,0.0200712863979,-0.0209439510239,0.00610865238198,0.0,0.0,0.0,0.0,0.0,0.0,0.0,0.0,0.0,-0.420849,0.582714,-9.744273,0.0,0.0,0.0,0.0,0.0,0.0,0.0,0.0,0.0
1636487987234920779,32893,1636487987229034023,,0.0,0.0,0.0,0.0,-1.0,0.0,0.0,0.0,0.0,0.0,0.0,0.0,0.0,0.0261799387799,0.00174532925199,0.0863937979737,0.0,0.0,0.0,0.0,0.0,0.0,0.0,0.0,0.0,-0.032373,0.420849,-9.809019,0.0,0.0,0.0,0.0,0.0,0.0,0.0,0.0,0.0
1636487987252103489,32894,1636487987248864633,,0.0,0.0,0.0,0.0,-1.0,0.0,0.0,0.0,0.0,0.0,0.0,0.0,0.0,0.00959931088597,0.0218166156499,0.00349065850399,0.0,0.0,0.0,0.0,0.0,0.0,0.0,0.0,0.0,0.776952,0.129492,-9.550035,0.0,0.0,0.0,0.0,0.0,0.0,0.0,0.0,0.0
1636487987272140515,32895,1636487987269087106,,0.0,0.0,0.0,0.0,-1.0,0.0,0.0,0.0,0.0,0.0,0.0,0.0,0.0,-0.0244346095279,-0.010471975512,-0.0331612557879,0.0,0.0,0.0,0.0,0.0,0.0,0.0,0.0,0.0,0.517968,0.291357,-9.679527,0.0,0.0,0.0,0.0,0.0,0.0,0.0,0.0,0.0
1636487987294081167,32896,1636487987289172137,,0.0,0.0,0.0,0.0,-1.0,0.0,0.0,0.0,0.0,0.0,0.0,0.0,0.0,-0.0270526034059,-0.0244346095279,-0.0506145483078,0.0,0.0,0.0,0.0,0.0,0.0,0.0,0.0,0.0,-0.356103,0.161865,-9.614781,0.0,0.0,0.0,0.0,0.0,0.0,0.0,0.0,0.0
1636487987313043890,32897,1636487987308878260,,0.0,0.0,0.0,0.0,-1.0,0.0,0.0,0.0,0.0,0.0,0.0,0.0,0.0,-0.01308996939,0.0157079632679,-0.0645771823238,0.0,0.0,0.0,0.0,0.0,0.0,0.0,0.0,0.0,-0.194238,0.161865,-9.873765,0.0,0.0,0.0,0.0,0.0,0.0,0.0,0.0,0.0
1636487987332120288,32898,1636487987329116705,,0.0,0.0,0.0,0.0,-1.0,0.0,0.0,0.0,0.0,0.0,0.0,0.0,0.0,0.0200712863979,0.0279252680319,0.00261799387799,0.0,0.0,0.0,0.0,0.0,0.0,0.0,0.0,0.0,0.129492,0.517968,-9.614781,0.0,0.0,0.0,0.0,0.0,0.0,0.0,0.0,0.0
1636487987350397764,32899,1636487987348792151,,0.0,0.0,0.0,0.0,-1.0,0.0,0.0,0.0,0.0,0.0,0.0,0.0,0.0,0.0575958653158,0.011344640138,0.0497418836818,0.0,0.0,0.0,0.0,0.0,0.0,0.0,0.0,0.0,0.388476,0.097119,-9.841392,0.0,0.0,0.0,0.0,0.0,0.0,0.0,0.0,0.0
1636487987372886990,32900,1636487987368911417,,0.0,0.0,0.0,0.0,-1.0,0.0,0.0,0.0,0.0,0.0,0.0,0.0,0.0,0.0244346095279,-0.00174532925199,0.0497418836818,0.0,0.0,0.0,0.0,0.0,0.0,0.0,0.0,0.0,0.356103,0.194238,-9.776646,0.0,0.0,0.0,0.0,0.0,0.0,0.0,0.0,0.0
1636487987393171433,32901,1636487987388988377,,0.0,0.0,0.0,0.0,-1.0,0.0,0.0,0.0,0.0,0.0,0.0,0.0,0.0,0.0157079632679,0.0,0.00261799387799,0.0,0.0,0.0,0.0,0.0,0.0,0.0,0.0,0.0,0.291357,0.226611,-9.161559,0.0,0.0,0.0,0.0,0.0,0.0,0.0,0.0,0.0
1636487987411610483,32902,1636487987408833442,,0.0,0.0,0.0,0.0,-1.0,0.0,0.0,0.0,0.0,0.0,0.0,0.0,0.0,-0.0209439510239,-0.011344640138,-0.0488692190558,0.0,0.0,0.0,0.0,0.0,0.0,0.0,0.0,0.0,-0.258984,0.226611,-9.550035,0.0,0.0,0.0,0.0,0.0,0.0,0.0,0.0,0.0
1636487987429853094,32903,1636487987429114046,,0.0,0.0,0.0,0.0,-1.0,0.0,0.0,0.0,0.0,0.0,0.0,0.0,0.0,-0.0235619449019,0.0235619449019,-0.0750491578358,0.0,0.0,0.0,0.0,0.0,0.0,0.0,0.0,0.0,-0.194238,-0.129492,-9.582408,0.0,0.0,0.0,0.0,0.0,0.0,0.0,0.0,0.0
1636487987452150950,32904,1636487987448835779,,0.0,0.0,0.0,0.0,-1.0,0.0,0.0,0.0,0.0,0.0,0.0,0.0,0.0,-0.011344640138,0.00872664625997,-0.0462512251778,0.0,0.0,0.0,0.0,0.0,0.0,0.0,0.0,0.0,0.129492,0.097119,-9.129186,0.0,0.0,0.0,0.0,0.0,0.0,0.0,0.0,0.0
1636487987471567476,32905,1636487987469207293,,0.0,0.0,0.0,0.0,-1.0,0.0,0.0,0.0,0.0,0.0,0.0,0.0,0.0,0.0375245789179,-0.0401425727959,0.0959931088597,0.0,0.0,0.0,0.0,0.0,0.0,0.0,0.0,0.0,-0.388476,0.550341,-9.873765,0.0,0.0,0.0,0.0,0.0,0.0,0.0,0.0,0.0
1636487987489916211,32906,1636487987489024513,,0.0,0.0,0.0,0.0,-1.0,0.0,0.0,0.0,0.0,0.0,0.0,0.0,0.0,0.0296705972839,0.0366519142919,0.0951204442337,0.0,0.0,0.0,0.0,0.0,0.0,0.0,0.0,0.0,0.32373,0.064746,-10.488852,0.0,0.0,0.0,0.0,0.0,0.0,0.0,0.0,0.0
1636487987512411799,32907,1636487987508912807,,0.0,0.0,0.0,0.0,-1.0,0.0,0.0,0.0,0.0,0.0,0.0,0.0,0.0,-0.00698131700798,0.0226892802759,0.00610865238198,0.0,0.0,0.0,0.0,0.0,0.0,0.0,0.0,0.0,0.453222,0.0,-9.323424,0.0,0.0,0.0,0.0,0.0,0.0,0.0,0.0,0.0
1636487987532550822,32908,1636487987529979563,,0.0,0.0,0.0,0.0,-1.0,0.0,0.0,0.0,0.0,0.0,0.0,0.0,0.0,-0.0191986217719,-0.0235619449019,-0.0602138591938,0.0,0.0,0.0,0.0,0.0,0.0,0.0,0.0,0.0,0.258984,-0.032373,-9.096813,0.0,0.0,0.0,0.0,0.0,0.0,0.0,0.0,0.0
1636487987550433751,32909,1636487987548850707,,0.0,0.0,0.0,0.0,-1.0,0.0,0.0,0.0,0.0,0.0,0.0,0.0,0.0,-0.0349065850399,0.000872664625997,-0.0942477796077,0.0,0.0,0.0,0.0,0.0,0.0,0.0,0.0,0.0,-0.064746,-0.032373,-10.100376,0.0,0.0,0.0,0.0,0.0,0.0,0.0,0.0,0.0
1636487987572238929,32910,1636487987569139129,,0.0,0.0,0.0,0.0,-1.0,0.0,0.0,0.0,0.0,0.0,0.0,0.0,0.0,0.00698131700798,0.0331612557879,-0.0235619449019,0.0,0.0,0.0,0.0,0.0,0.0,0.0,0.0,0.0,0.0,0.097119,-9.291051,0.0,0.0,0.0,0.0,0.0,0.0,0.0,0.0,0.0
1636487987592416167,32911,1636487987589169469,,0.0,0.0,0.0,0.0,-1.0,0.0,0.0,0.0,0.0,0.0,0.0,0.0,0.0,0.0410152374219,-0.00959931088597,0.0846484687217,0.0,0.0,0.0,0.0,0.0,0.0,0.0,0.0,0.0,-0.161865,0.161865,-9.614781,0.0,0.0,0.0,0.0,0.0,0.0,0.0,0.0,0.0
1636487987612320916,32912,1636487987608992261,,0.0,0.0,0.0,0.0,-1.0,0.0,0.0,0.0,0.0,0.0,0.0,0.0,0.0,0.00261799387799,0.0174532925199,0.00174532925199,0.0,0.0,0.0,0.0,0.0,0.0,0.0,0.0,0.0,0.517968,0.226611,-10.068003,0.0,0.0,0.0,0.0,0.0,0.0,0.0,0.0,0.0
1636487987632191821,32913,1636487987629151171,,0.0,0.0,0.0,0.0,-1.0,0.0,0.0,0.0,0.0,0.0,0.0,0.0,0.0,0.00261799387799,0.0191986217719,-0.0165806278939,0.0,0.0,0.0,0.0,0.0,0.0,0.0,0.0,0.0,0.194238,0.226611,-8.74071,0.0,0.0,0.0,0.0,0.0,0.0,0.0,0.0,0.0
1636487987652558678,32914,1636487987648795161,,0.0,0.0,0.0,0.0,-1.0,0.0,0.0,0.0,0.0,0.0,0.0,0.0,0.0,-0.0331612557879,-0.0322885911619,-0.011344640138,0.0,0.0,0.0,0.0,0.0,0.0,0.0,0.0,0.0,-0.097119,-0.129492,-9.485289,0.0,0.0,0.0,0.0,0.0,0.0,0.0,0.0,0.0
1636487987671828441,32915,1636487987668909427,,0.0,0.0,0.0,0.0,-1.0,0.0,0.0,0.0,0.0,0.0,0.0,0.0,0.0,-0.0322885911619,0.00785398163397,-0.0471238898038,0.0,0.0,0.0,0.0,0.0,0.0,0.0,0.0,0.0,-0.420849,0.097119,-10.424106,0.0,0.0,0.0,0.0,0.0,0.0,0.0,0.0,0.0
1636487987692696701,32916,1636487987688899430,,0.0,0.0,0.0,0.0,-1.0,0.0,0.0,0.0,0.0,0.0,0.0,0.0,0.0,-0.00785398163397,0.0471238898038,0.012217304764,0.0,0.0,0.0,0.0,0.0,0.0,0.0,0.0,0.0,0.129492,0.161865,-9.582408,0.0,0.0,0.0,0.0,0.0,0.0,0.0,0.0,0.0
1636487987711741308,32917,1636487987709367076,,0.0,0.0,0.0,0.0,-1.0,0.0,0.0,0.0,0.0,0.0,0.0,0.0,0.0,0.0287979326579,-0.0261799387799,-0.0191986217719,0.0,0.0,0.0,0.0,0.0,0.0,0.0,0.0,0.0,0.291357,0.291357,-9.873765,0.0,0.0,0.0,0.0,0.0,0.0,0.0,0.0,0.0
1636487987733011803,32918,1636487987728944368,,0.0,0.0,0.0,0.0,-1.0,0.0,0.0,0.0,0.0,0.0,0.0,0.0,0.0,0.012217304764,0.00261799387799,0.00610865238198,0.0,0.0,0.0,0.0,0.0,0.0,0.0,0.0,0.0,0.485595,0.226611,-10.068003,0.0,0.0,0.0,0.0,0.0,0.0,0.0,0.0,0.0
1636487987753448260,32919,1636487987749044999,,0.0,0.0,0.0,0.0,-1.0,0.0,0.0,0.0,0.0,0.0,0.0,0.0,0.0,0.0,-0.00261799387799,-0.014835298642,0.0,0.0,0.0,0.0,0.0,0.0,0.0,0.0,0.0,0.32373,-0.064746,-8.514099,0.0,0.0,0.0,0.0,0.0,0.0,0.0,0.0,0.0
1636487987772668754,32920,1636487987768942956,,0.0,0.0,0.0,0.0,-1.0,0.0,0.0,0.0,0.0,0.0,0.0,0.0,0.0,-0.0270526034059,-0.00436332312999,-0.0183259571459,0.0,0.0,0.0,0.0,0.0,0.0,0.0,0.0,0.0,0.291357,-0.064746,-9.841392,0.0,0.0,0.0,0.0,0.0,0.0,0.0,0.0,0.0
1636487987793765708,32921,1636487987789223374,,0.0,0.0,0.0,0.0,-1.0,0.0,0.0,0.0,0.0,0.0,0.0,0.0,0.0,-0.0593411945678,-0.00174532925199,-0.013962634016,0.0,0.0,0.0,0.0,0.0,0.0,0.0,0.0,0.0,-0.744579,-0.161865,-9.841392,0.0,0.0,0.0,0.0,0.0,0.0,0.0,0.0,0.0
1636487987813151162,32922,1636487987808837938,,0.0,0.0,0.0,0.0,-1.0,0.0,0.0,0.0,0.0,0.0,0.0,0.0,0.0,-0.000872664625997,0.0296705972839,-0.0575958653158,0.0,0.0,0.0,0.0,0.0,0.0,0.0,0.0,0.0,0.420849,0.32373,-10.03563,0.0,0.0,0.0,0.0,0.0,0.0,0.0,0.0,0.0
1636487987832618739,32923,1636487987828914877,,0.0,0.0,0.0,0.0,-1.0,0.0,0.0,0.0,0.0,0.0,0.0,0.0,0.0,0.011344640138,0.00349065850399,0.00785398163397,0.0,0.0,0.0,0.0,0.0,0.0,0.0,0.0,0.0,0.064746,0.517968,-9.161559,0.0,0.0,0.0,0.0,0.0,0.0,0.0,0.0,0.0
1636487987851756952,32924,1636487987848889025,,0.0,0.0,0.0,0.0,-1.0,0.0,0.0,0.0,0.0,0.0,0.0,0.0,0.0,0.0410152374219,-0.0305432619099,0.0698131700798,0.0,0.0,0.0,0.0,0.0,0.0,0.0,0.0,0.0,-0.161865,0.420849,-10.100376,0.0,0.0,0.0,0.0,0.0,0.0,0.0,0.0,0.0
1636487987871032787,32925,1636487987869751233,,0.0,0.0,0.0,0.0,-1.0,0.0,0.0,0.0,0.0,0.0,0.0,0.0,0.0,0.00698131700798,0.0279252680319,0.0218166156499,0.0,0.0,0.0,0.0,0.0,0.0,0.0,0.0,0.0,0.194238,-0.194238,-9.873765,0.0,0.0,0.0,0.0,0.0,0.0,0.0,0.0,0.0
1636487987891157189,32926,1636487987888813264,,0.0,0.0,0.0,0.0,-1.0,0.0,0.0,0.0,0.0,0.0,0.0,0.0,0.0,-0.0471238898038,-0.0200712863979,-0.0410152374219,0.0,0.0,0.0,0.0,0.0,0.0,0.0,0.0,0.0,-0.226611,-0.226611,-8.837829,0.0,0.0,0.0,0.0,0.0,0.0,0.0,0.0,0.0
1636487987912671568,32927,1636487987908852159,,0.0,0.0,0.0,0.0,-1.0,0.0,0.0,0.0,0.0,0.0,0.0,0.0,0.0,-0.0410152374219,0.013962634016,-0.0497418836818,0.0,0.0,0.0,0.0,0.0,0.0,0.0,0.0,0.0,0.129492,0.032373,-10.03563,0.0,0.0,0.0,0.0,0.0,0.0,0.0,0.0,0.0
1636487987934147581,32928,1636487987929129659,,0.0,0.0,0.0,0.0,-1.0,0.0,0.0,0.0,0.0,0.0,0.0,0.0,0.0,-0.0209439510239,-0.00610865238198,-0.0410152374219,0.0,0.0,0.0,0.0,0.0,0.0,0.0,0.0,0.0,0.0,0.258984,-9.647154,0.0,0.0,0.0,0.0,0.0,0.0,0.0,0.0,0.0
1636487987951262004,32929,1636487987948885661,,0.0,0.0,0.0,0.0,-1.0,0.0,0.0,0.0,0.0,0.0,0.0,0.0,0.0,0.0261799387799,-0.00872664625997,0.0628318530718,0.0,0.0,0.0,0.0,0.0,0.0,0.0,0.0,0.0,-0.129492,0.291357,-9.679527,0.0,0.0,0.0,0.0,0.0,0.0,0.0,0.0,0.0
1636487987972401958,32930,1636487987970119990,,0.0,0.0,0.0,0.0,-1.0,0.0,0.0,0.0,0.0,0.0,0.0,0.0,0.0,0.0191986217719,0.000872664625997,0.0811578102177,0.0,0.0,0.0,0.0,0.0,0.0,0.0,0.0,0.0,0.194238,0.194238,-10.165122,0.0,0.0,0.0,0.0,0.0,0.0,0.0,0.0,0.0
1636487987992652507,32931,1636487987989045841,,0.0,0.0,0.0,0.0,-1.0,0.0,0.0,0.0,0.0,0.0,0.0,0.0,0.0,0.0261799387799,0.0305432619099,0.011344640138,0.0,0.0,0.0,0.0,0.0,0.0,0.0,0.0,0.0,0.550341,-0.064746,-9.906138,0.0,0.0,0.0,0.0,0.0,0.0,0.0,0.0,0.0
1636487988012533587,32932,1636487988008868776,,0.0,0.0,0.0,0.0,-1.0,0.0,0.0,0.0,0.0,0.0,0.0,0.0,0.0,-0.0523598775598,-0.00261799387799,-0.0567232006898,0.0,0.0,0.0,0.0,0.0,0.0,0.0,0.0,0.0,0.356103,-0.161865,-8.934948,0.0,0.0,0.0,0.0,0.0,0.0,0.0,0.0,0.0
1636487988034514748,32933,1636487988029131405,,0.0,0.0,0.0,0.0,-1.0,0.0,0.0,0.0,0.0,0.0,0.0,0.0,0.0,-0.0296705972839,-0.00959931088597,-0.0523598775598,0.0,0.0,0.0,0.0,0.0,0.0,0.0,0.0,0.0,-0.356103,0.064746,-9.550035,0.0,0.0,0.0,0.0,0.0,0.0,0.0,0.0,0.0
1636487988052123107,32934,1636487988048709770,,0.0,0.0,0.0,0.0,-1.0,0.0,0.0,0.0,0.0,0.0,0.0,0.0,0.0,0.0,0.0226892802759,-0.0174532925199,0.0,0.0,0.0,0.0,0.0,0.0,0.0,0.0,0.0,0.064746,0.064746,-9.938511,0.0,0.0,0.0,0.0,0.0,0.0,0.0,0.0,0.0
1636487988073247988,32935,1636487988069223258,,0.0,0.0,0.0,0.0,-1.0,0.0,0.0,0.0,0.0,0.0,0.0,0.0,0.0,0.0191986217719,0.011344640138,0.0226892802759,0.0,0.0,0.0,0.0,0.0,0.0,0.0,0.0,0.0,-0.129492,0.226611,-9.129186,0.0,0.0,0.0,0.0,0.0,0.0,0.0,0.0,0.0
1636487988092213446,32936,1636487988089440198,,0.0,0.0,0.0,0.0,-1.0,0.0,0.0,0.0,0.0,0.0,0.0,0.0,0.0,0.0209439510239,0.000872664625997,0.0785398163397,0.0,0.0,0.0,0.0,0.0,0.0,0.0,0.0,0.0,0.874071,0.356103,-10.068003,0.0,0.0,0.0,0.0,0.0,0.0,0.0,0.0,0.0
1636487988111518570,32937,1636487988109139466,,0.0,0.0,0.0,0.0,-1.0,0.0,0.0,0.0,0.0,0.0,0.0,0.0,0.0,0.014835298642,0.011344640138,0.00959931088597,0.0,0.0,0.0,0.0,0.0,0.0,0.0,0.0,0.0,0.64746,-0.258984,-9.841392,0.0,0.0,0.0,0.0,0.0,0.0,0.0,0.0,0.0
1636487988131274664,32938,1636487988128971867,,0.0,0.0,0.0,0.0,-1.0,0.0,0.0,0.0,0.0,0.0,0.0,0.0,0.0,-0.0209439510239,-0.0200712863979,-0.0383972435439,0.0,0.0,0.0,0.0,0.0,0.0,0.0,0.0,0.0,-0.356103,0.226611,-9.291051,0.0,0.0,0.0,0.0,0.0,0.0,0.0,0.0,0.0
1636487988152254035,32939,1636487988149071421,,0.0,0.0,0.0,0.0,-1.0,0.0,0.0,0.0,0.0,0.0,0.0,0.0,0.0,-0.0218166156499,0.00261799387799,-0.011344640138,0.0,0.0,0.0,0.0,0.0,0.0,0.0,0.0,0.0,-0.032373,0.097119,-10.003257,0.0,0.0,0.0,0.0,0.0,0.0,0.0,0.0,0.0
1636487988171606443,32940,1636487988168900141,,0.0,0.0,0.0,0.0,-1.0,0.0,0.0,0.0,0.0,0.0,0.0,0.0,0.0,-0.0191986217719,0.0183259571459,-0.0471238898038,0.0,0.0,0.0,0.0,0.0,0.0,0.0,0.0,0.0,0.0,0.0,-9.161559,0.0,0.0,0.0,0.0,0.0,0.0,0.0,0.0,0.0
1636487988194537529,32941,1636487988189456188,,0.0,0.0,0.0,0.0,-1.0,0.0,0.0,0.0,0.0,0.0,0.0,0.0,0.0,0.0244346095279,0.00261799387799,-0.0593411945678,0.0,0.0,0.0,0.0,0.0,0.0,0.0,0.0,0.0,0.32373,0.420849,-9.970884,0.0,0.0,0.0,0.0,0.0,0.0,0.0,0.0,0.0
1636487988212448005,32942,1636487988209034492,,0.0,0.0,0.0,0.0,-1.0,0.0,0.0,0.0,0.0,0.0,0.0,0.0,0.0,0.0270526034059,-0.00523598775598,0.00959931088597,0.0,0.0,0.0,0.0,0.0,0.0,0.0,0.0,0.0,0.161865,0.485595,-9.938511,0.0,0.0,0.0,0.0,0.0,0.0,0.0,0.0,0.0
1636487988233155754,32943,1636487988229652263,,0.0,0.0,0.0,0.0,-1.0,0.0,0.0,0.0,0.0,0.0,0.0,0.0,0.0,0.0331612557879,0.00610865238198,0.00174532925199,0.0,0.0,0.0,0.0,0.0,0.0,0.0,0.0,0.0,0.517968,0.129492,-10.003257,0.0,0.0,0.0,0.0,0.0,0.0,0.0,0.0,0.0
1636487988253504631,32944,1636487988248810428,,0.0,0.0,0.0,0.0,-1.0,0.0,0.0,0.0,0.0,0.0,0.0,0.0,0.0,-0.00872664625997,-0.00436332312999,0.00610865238198,0.0,0.0,0.0,0.0,0.0,0.0,0.0,0.0,0.0,-0.194238,-0.291357,-9.323424,0.0,0.0,0.0,0.0,0.0,0.0,0.0,0.0,0.0
1636487988272613101,32945,1636487988269103259,,0.0,0.0,0.0,0.0,-1.0,0.0,0.0,0.0,0.0,0.0,0.0,0.0,0.0,-0.0209439510239,0.00174532925199,-0.0340339204139,0.0,0.0,0.0,0.0,0.0,0.0,0.0,0.0,0.0,-0.258984,-0.194238,-9.906138,0.0,0.0,0.0,0.0,0.0,0.0,0.0,0.0,0.0
1636487988293773901,32946,1636487988289343378,,0.0,0.0,0.0,0.0,-1.0,0.0,0.0,0.0,0.0,0.0,0.0,0.0,0.0,-0.0279252680319,0.011344640138,-0.0837758040957,0.0,0.0,0.0,0.0,0.0,0.0,0.0,0.0,0.0,0.194238,0.194238,-9.485289,0.0,0.0,0.0,0.0,0.0,0.0,0.0,0.0,0.0
