%time,field.header.seq,field.header.stamp,field.header.frame_id,field.orientation.x,field.orientation.y,field.orientation.z,field.orientation.w,field.orientation_covariance0,field.orientation_covariance1,field.orientation_covariance2,field.orientation_covariance3,field.orientation_covariance4,field.orientation_covariance5,field.orientation_covariance6,field.orientation_covariance7,field.orientation_covariance8,field.angular_velocity.x,field.angular_velocity.y,field.angular_velocity.z,field.angular_velocity_covariance0,field.angular_velocity_covariance1,field.angular_velocity_covariance2,field.angular_velocity_covariance3,field.angular_velocity_covariance4,field.angular_velocity_covariance5,field.angular_velocity_covariance6,field.angular_velocity_covariance7,field.angular_velocity_covariance8,field.linear_acceleration.x,field.linear_acceleration.y,field.linear_acceleration.z,field.linear_acceleration_covariance0,field.linear_acceleration_covariance1,field.linear_acceleration_covariance2,field.linear_acceleration_covariance3,field.linear_acceleration_covariance4,field.linear_acceleration_covariance5,field.linear_acceleration_covariance6,field.linear_acceleration_covariance7,field.linear_acceleration_covariance8
1637022417299826839,1584,1637022417298641726,,0.0,0.0,0.0,0.0,-1.0,0.0,0.0,0.0,0.0,0.0,0.0,0.0,0.0,0.000872664625997,0.00872664625997,-0.010471975512,0.0,0.0,0.0,0.0,0.0,0.0,0.0,0.0,0.0,0.194238,0.161865,-9.614781,0.0,0.0,0.0,0.0,0.0,0.0,0.0,0.0,0.0
1637022417316468046,1585,1637022417315997176,,0.0,0.0,0.0,0.0,-1.0,0.0,0.0,0.0,0.0,0.0,0.0,0.0,0.0,-0.00261799387799,0.00174532925199,-0.00959931088597,0.0,0.0,0.0,0.0,0.0,0.0,0.0,0.0,0.0,0.161865,0.226611,-9.744273,0.0,0.0,0.0,0.0,0.0,0.0,0.0,0.0,0.0
1637022417336094071,1586,1637022417335885176,,0.0,0.0,0.0,0.0,-1.0,0.0,0.0,0.0,0.0,0.0,0.0,0.0,0.0,-0.00349065850399,0.00872664625997,-0.00698131700798,0.0,0.0,0.0,0.0,0.0,0.0,0.0,0.0,0.0,0.129492,0.194238,-9.647154,0.0,0.0,0.0,0.0,0.0,0.0,0.0,0.0,0.0
1637022417356038756,1587,1637022417355840469,,0.0,0.0,0.0,0.0,-1.0,0.0,0.0,0.0,0.0,0.0,0.0,0.0,0.0,0.0,0.00523598775598,-0.00698131700798,0.0,0.0,0.0,0.0,0.0,0.0,0.0,0.0,0.0,0.097119,0.097119,-9.614781,0.0,0.0,0.0,0.0,0.0,0.0,0.0,0.0,0.0
1637022417375923424,1588,1637022417375822787,,0.0,0.0,0.0,0.0,-1.0,0.0,0.0,0.0,0.0,0.0,0.0,0.0,0.0,-0.00436332312999,0.00872664625997,0.0,0.0,0.0,0.0,0.0,0.0,0.0,0.0,0.0,0.0,0.129492,0.32373,-9.614781,0.0,0.0,0.0,0.0,0.0,0.0,0.0,0.0,0.0
1637022417396204113,1589,1637022417395882797,,0.0,0.0,0.0,0.0,-1.0,0.0,0.0,0.0,0.0,0.0,0.0,0.0,0.0,-0.00349065850399,0.00261799387799,-0.00698131700798,0.0,0.0,0.0,0.0,0.0,0.0,0.0,0.0,0.0,0.129492,0.129492,-9.614781,0.0,0.0,0.0,0.0,0.0,0.0,0.0,0.0,0.0
1637022417416018050,1590,1637022417415876767,,0.0,0.0,0.0,0.0,-1.0,0.0,0.0,0.0,0.0,0.0,0.0,0.0,0.0,-0.00436332312999,0.0,-0.00698131700798,0.0,0.0,0.0,0.0,0.0,0.0,0.0,0.0,0.0,0.226611,0.161865,-9.647154,0.0,0.0,0.0,0.0,0.0,0.0,0.0,0.0,0.0
1637022417436017697,1591,1637022417435860265,,0.0,0.0,0.0,0.0,-1.0,0.0,0.0,0.0,0.0,0.0,0.0,0.0,0.0,-0.00261799387799,0.0,-0.0174532925199,0.0,0.0,0.0,0.0,0.0,0.0,0.0,0.0,0.0,0.161865,0.194238,-9.679527,0.0,0.0,0.0,0.0,0.0,0.0,0.0,0.0,0.0
1637022417456110665,1592,1637022417455905079,,0.0,0.0,0.0,0.0,-1.0,0.0,0.0,0.0,0.0,0.0,0.0,0.0,0.0,-0.000872664625997,0.000872664625997,-0.00959931088597,0.0,0.0,0.0,0.0,0.0,0.0,0.0,0.0,0.0,0.194238,0.129492,-9.647154,0.0,0.0,0.0,0.0,0.0,0.0,0.0,0.0,0.0
1637022417476141728,1593,1637022417475992702,,0.0,0.0,0.0,0.0,-1.0,0.0,0.0,0.0,0.0,0.0,0.0,0.0,0.0,-0.01308996939,0.000872664625997,-0.00610865238198,0.0,0.0,0.0,0.0,0.0,0.0,0.0,0.0,0.0,0.097119,0.097119,-9.614781,0.0,0.0,0.0,0.0,0.0,0.0,0.0,0.0,0.0
1637022417496608021,1594,1637022417496176800,,0.0,0.0,0.0,0.0,-1.0,0.0,0.0,0.0,0.0,0.0,0.0,0.0,0.0,-0.000872664625997,0.01308996939,-0.00610865238198,0.0,0.0,0.0,0.0,0.0,0.0,0.0,0.0,0.0,0.064746,0.258984,-9.614781,0.0,0.0,0.0,0.0,0.0,0.0,0.0,0.0,0.0
1637022417519019836,1595,1637022417518231452,,0.0,0.0,0.0,0.0,-1.0,0.0,0.0,0.0,0.0,0.0,0.0,0.0,0.0,0.00610865238198,0.00261799387799,-0.00872664625997,0.0,0.0,0.0,0.0,0.0,0.0,0.0,0.0,0.0,0.129492,0.129492,-9.582408,0.0,0.0,0.0,0.0,0.0,0.0,0.0,0.0,0.0
1637022417537196717,1596,1637022417536604294,,0.0,0.0,0.0,0.0,-1.0,0.0,0.0,0.0,0.0,0.0,0.0,0.0,0.0,0.00349065850399,0.0,-0.011344640138,0.0,0.0,0.0,0.0,0.0,0.0,0.0,0.0,0.0,0.194238,0.129492,-9.647154,0.0,0.0,0.0,0.0,0.0,0.0,0.0,0.0,0.0
1637022417559423223,1597,1637022417558870193,,0.0,0.0,0.0,0.0,-1.0,0.0,0.0,0.0,0.0,0.0,0.0,0.0,0.0,-0.00610865238198,0.00174532925199,0.0,0.0,0.0,0.0,0.0,0.0,0.0,0.0,0.0,0.0,0.194238,0.129492,-9.647154,0.0,0.0,0.0,0.0,0.0,0.0,0.0,0.0,0.0
1637022417578528719,1598,1637022417576632775,,0.0,0.0,0.0,0.0,-1.0,0.0,0.0,0.0,0.0,0.0,0.0,0.0,0.0,-0.00698131700798,-0.00261799387799,-0.00261799387799,0.0,0.0,0.0,0.0,0.0,0.0,0.0,0.0,0.0,0.161865,0.161865,-9.970884,0.0,0.0,0.0,0.0,0.0,0.0,0.0,0.0,0.0
1637022417598314336,1599,1637022417597748160,,0.0,0.0,0.0,0.0,-1.0,0.0,0.0,0.0,0.0,0.0,0.0,0.0,0.0,-0.00698131700798,-0.00349065850399,-0.00174532925199,0.0,0.0,0.0,0.0,0.0,0.0,0.0,0.0,0.0,0.129492,0.258984,-9.420543,0.0,0.0,0.0,0.0,0.0,0.0,0.0,0.0,0.0
1637022417617296675,1600,1637022417617024462,,0.0,0.0,0.0,0.0,-1.0,0.0,0.0,0.0,0.0,0.0,0.0,0.0,0.0,-0.00523598775598,0.00436332312999,-0.00349065850399,0.0,0.0,0.0,0.0,0.0,0.0,0.0,0.0,0.0,0.161865,0.129492,-9.614781,0.0,0.0,0.0,0.0,0.0,0.0,0.0,0.0,0.0
1637022417636956912,1601,1637022417636494073,,0.0,0.0,0.0,0.0,-1.0,0.0,0.0,0.0,0.0,0.0,0.0,0.0,0.0,-0.00349065850399,0.0,0.00436332312999,0.0,0.0,0.0,0.0,0.0,0.0,0.0,0.0,0.0,0.097119,0.161865,-9.647154,0.0,0.0,0.0,0.0,0.0,0.0,0.0,0.0,0.0
1637022417656613769,1602,1637022417656475324,,0.0,0.0,0.0,0.0,-1.0,0.0,0.0,0.0,0.0,0.0,0.0,0.0,0.0,0.00174532925199,-0.00698131700798,-0.00523598775598,0.0,0.0,0.0,0.0,0.0,0.0,0.0,0.0,0.0,0.517968,0.161865,-9.679527,0.0,0.0,0.0,0.0,0.0,0.0,0.0,0.0,0.0
1637022417676037090,1603,1637022417675861053,,0.0,0.0,0.0,0.0,-1.0,0.0,0.0,0.0,0.0,0.0,0.0,0.0,0.0,-0.00610865238198,-0.00349065850399,-0.01308996939,0.0,0.0,0.0,0.0,0.0,0.0,0.0,0.0,0.0,0.226611,0.161865,-9.647154,0.0,0.0,0.0,0.0,0.0,0.0,0.0,0.0,0.0
1637022417696360166,1604,1637022417696109459,,0.0,0.0,0.0,0.0,-1.0,0.0,0.0,0.0,0.0,0.0,0.0,0.0,0.0,-0.00872664625997,0.00349065850399,-0.00174532925199,0.0,0.0,0.0,0.0,0.0,0.0,0.0,0.0,0.0,0.129492,0.226611,-9.647154,0.0,0.0,0.0,0.0,0.0,0.0,0.0,0.0,0.0
1637022417716179280,1605,1637022417716032428,,0.0,0.0,0.0,0.0,-1.0,0.0,0.0,0.0,0.0,0.0,0.0,0.0,0.0,0.0,0.00523598775598,-0.012217304764,0.0,0.0,0.0,0.0,0.0,0.0,0.0,0.0,0.0,0.161865,0.161865,-9.647154,0.0,0.0,0.0,0.0,0.0,0.0,0.0,0.0,0.0
1637022417736015445,1606,1637022417735882473,,0.0,0.0,0.0,0.0,-1.0,0.0,0.0,0.0,0.0,0.0,0.0,0.0,0.0,-0.00174532925199,0.00785398163397,-0.00872664625997,0.0,0.0,0.0,0.0,0.0,0.0,0.0,0.0,0.0,0.194238,0.226611,-9.647154,0.0,0.0,0.0,0.0,0.0,0.0,0.0,0.0,0.0
1637022417755992988,1607,1637022417755888311,,0.0,0.0,0.0,0.0,-1.0,0.0,0.0,0.0,0.0,0.0,0.0,0.0,0.0,0.00349065850399,0.00698131700798,-0.014835298642,0.0,0.0,0.0,0.0,0.0,0.0,0.0,0.0,0.0,0.129492,0.161865,-9.614781,0.0,0.0,0.0,0.0,0.0,0.0,0.0,0.0,0.0
1637022417776186625,1608,1637022417776029134,,0.0,0.0,0.0,0.0,-1.0,0.0,0.0,0.0,0.0,0.0,0.0,0.0,0.0,-0.00174532925199,0.00174532925199,-0.000872664625997,0.0,0.0,0.0,0.0,0.0,0.0,0.0,0.0,0.0,0.194238,0.129492,-9.614781,0.0,0.0,0.0,0.0,0.0,0.0,0.0,0.0,0.0
1637022417796421246,1609,1637022417796060494,,0.0,0.0,0.0,0.0,-1.0,0.0,0.0,0.0,0.0,0.0,0.0,0.0,0.0,-0.00436332312999,0.00959931088597,-0.00872664625997,0.0,0.0,0.0,0.0,0.0,0.0,0.0,0.0,0.0,0.161865,0.291357,-9.485289,0.0,0.0,0.0,0.0,0.0,0.0,0.0,0.0,0.0
1637022417816504546,1610,1637022417816345037,,0.0,0.0,0.0,0.0,-1.0,0.0,0.0,0.0,0.0,0.0,0.0,0.0,0.0,-0.00698131700798,0.00349065850399,-0.00174532925199,0.0,0.0,0.0,0.0,0.0,0.0,0.0,0.0,0.0,0.0,0.161865,-9.647154,0.0,0.0,0.0,0.0,0.0,0.0,0.0,0.0,0.0
1637022417836323848,1611,1637022417836136270,,0.0,0.0,0.0,0.0,-1.0,0.0,0.0,0.0,0.0,0.0,0.0,0.0,0.0,-0.00261799387799,0.00349065850399,-0.00523598775598,0.0,0.0,0.0,0.0,0.0,0.0,0.0,0.0,0.0,0.226611,0.194238,-9.614781,0.0,0.0,0.0,0.0,0.0,0.0,0.0,0.0,0.0
1637022417856369636,1612,1637022417856058439,,0.0,0.0,0.0,0.0,-1.0,0.0,0.0,0.0,0.0,0.0,0.0,0.0,0.0,0.000872664625997,0.00872664625997,-0.00785398163397,0.0,0.0,0.0,0.0,0.0,0.0,0.0,0.0,0.0,0.097119,0.194238,-9.647154,0.0,0.0,0.0,0.0,0.0,0.0,0.0,0.0,0.0
1637022417876293973,1613,1637022417876099816,,0.0,0.0,0.0,0.0,-1.0,0.0,0.0,0.0,0.0,0.0,0.0,0.0,0.0,-0.00785398163397,0.0,-0.00349065850399,0.0,0.0,0.0,0.0,0.0,0.0,0.0,0.0,0.0,0.226611,0.129492,-9.679527,0.0,0.0,0.0,0.0,0.0,0.0,0.0,0.0,0.0
1637022417896540073,1614,1637022417896169517,,0.0,0.0,0.0,0.0,-1.0,0.0,0.0,0.0,0.0,0.0,0.0,0.0,0.0,-0.00523598775598,0.01308996939,-0.00436332312999,0.0,0.0,0.0,0.0,0.0,0.0,0.0,0.0,0.0,0.194238,0.129492,-9.7119,0.0,0.0,0.0,0.0,0.0,0.0,0.0,0.0,0.0
1637022417916781360,1615,1637022417916145667,,0.0,0.0,0.0,0.0,-1.0,0.0,0.0,0.0,0.0,0.0,0.0,0.0,0.0,-0.00349065850399,0.00959931088597,-0.014835298642,0.0,0.0,0.0,0.0,0.0,0.0,0.0,0.0,0.0,0.161865,0.161865,-9.614781,0.0,0.0,0.0,0.0,0.0,0.0,0.0,0.0,0.0
1637022417937194467,1616,1637022417936251600,,0.0,0.0,0.0,0.0,-1.0,0.0,0.0,0.0,0.0,0.0,0.0,0.0,0.0,0.00698131700798,0.00698131700798,-0.00785398163397,0.0,0.0,0.0,0.0,0.0,0.0,0.0,0.0,0.0,0.0,0.129492,-9.647154,0.0,0.0,0.0,0.0,0.0,0.0,0.0,0.0,0.0
1637022417956640786,1617,1637022417956100528,,0.0,0.0,0.0,0.0,-1.0,0.0,0.0,0.0,0.0,0.0,0.0,0.0,0.0,-0.00785398163397,0.00872664625997,0.00436332312999,0.0,0.0,0.0,0.0,0.0,0.0,0.0,0.0,0.0,0.161865,0.226611,-9.7119,0.0,0.0,0.0,0.0,0.0,0.0,0.0,0.0,0.0
1637022417976357027,1618,1637022417976084997,,0.0,0.0,0.0,0.0,-1.0,0.0,0.0,0.0,0.0,0.0,0.0,0.0,0.0,-0.01308996939,0.0,0.00610865238198,0.0,0.0,0.0,0.0,0.0,0.0,0.0,0.0,0.0,0.194238,0.194238,-9.582408,0.0,0.0,0.0,0.0,0.0,0.0,0.0,0.0,0.0
1637022417996590804,1619,1637022417996151201,,0.0,0.0,0.0,0.0,-1.0,0.0,0.0,0.0,0.0,0.0,0.0,0.0,0.0,-0.00174532925199,-0.00523598775598,-0.00436332312999,0.0,0.0,0.0,0.0,0.0,0.0,0.0,0.0,0.0,0.32373,0.226611,-9.679527,0.0,0.0,0.0,0.0,0.0,0.0,0.0,0.0,0.0
1637022418017042456,1620,1637022418016259409,,0.0,0.0,0.0,0.0,-1.0,0.0,0.0,0.0,0.0,0.0,0.0,0.0,0.0,-0.00610865238198,-0.00610865238198,-0.010471975512,0.0,0.0,0.0,0.0,0.0,0.0,0.0,0.0,0.0,0.161865,0.194238,-9.614781,0.0,0.0,0.0,0.0,0.0,0.0,0.0,0.0,0.0
1637022418036331191,1621,1637022418036026286,,0.0,0.0,0.0,0.0,-1.0,0.0,0.0,0.0,0.0,0.0,0.0,0.0,0.0,-0.00785398163397,0.011344640138,-0.00261799387799,0.0,0.0,0.0,0.0,0.0,0.0,0.0,0.0,0.0,0.161865,0.161865,-9.679527,0.0,0.0,0.0,0.0,0.0,0.0,0.0,0.0,0.0
1637022418056921445,1622,1637022418055900344,,0.0,0.0,0.0,0.0,-1.0,0.0,0.0,0.0,0.0,0.0,0.0,0.0,0.0,-0.014835298642,-0.00785398163397,-0.00349065850399,0.0,0.0,0.0,0.0,0.0,0.0,0.0,0.0,0.0,0.161865,0.226611,-9.7119,0.0,0.0,0.0,0.0,0.0,0.0,0.0,0.0,0.0
1637022418076168865,1623,1637022418075940036,,0.0,0.0,0.0,0.0,-1.0,0.0,0.0,0.0,0.0,0.0,0.0,0.0,0.0,-0.000872664625997,0.000872664625997,-0.00698131700798,0.0,0.0,0.0,0.0,0.0,0.0,0.0,0.0,0.0,0.161865,0.161865,-9.614781,0.0,0.0,0.0,0.0,0.0,0.0,0.0,0.0,0.0
1637022418096333498,1624,1637022418095903400,,0.0,0.0,0.0,0.0,-1.0,0.0,0.0,0.0,0.0,0.0,0.0,0.0,0.0,-0.00349065850399,-0.00174532925199,-0.00872664625997,0.0,0.0,0.0,0.0,0.0,0.0,0.0,0.0,0.0,0.064746,0.129492,-9.679527,0.0,0.0,0.0,0.0,0.0,0.0,0.0,0.0,0.0
1637022418116077323,1625,1637022418115860313,,0.0,0.0,0.0,0.0,-1.0,0.0,0.0,0.0,0.0,0.0,0.0,0.0,0.0,-0.00261799387799,0.00610865238198,-0.00261799387799,0.0,0.0,0.0,0.0,0.0,0.0,0.0,0.0,0.0,0.161865,0.129492,-9.679527,0.0,0.0,0.0,0.0,0.0,0.0,0.0,0.0,0.0
1637022418135989265,1626,1637022418135889963,,0.0,0.0,0.0,0.0,-1.0,0.0,0.0,0.0,0.0,0.0,0.0,0.0,0.0,-0.00872664625997,0.00174532925199,-0.00523598775598,0.0,0.0,0.0,0.0,0.0,0.0,0.0,0.0,0.0,0.129492,0.194238,-9.647154,0.0,0.0,0.0,0.0,0.0,0.0,0.0,0.0,0.0
1637022418155968610,1627,1637022418155867732,,0.0,0.0,0.0,0.0,-1.0,0.0,0.0,0.0,0.0,0.0,0.0,0.0,0.0,-0.00261799387799,0.00523598775598,-0.00436332312999,0.0,0.0,0.0,0.0,0.0,0.0,0.0,0.0,0.0,0.129492,0.129492,-9.647154,0.0,0.0,0.0,0.0,0.0,0.0,0.0,0.0,0.0
1637022418176174065,1628,1637022418175996954,,0.0,0.0,0.0,0.0,-1.0,0.0,0.0,0.0,0.0,0.0,0.0,0.0,0.0,0.00261799387799,-0.00174532925199,-0.0270526034059,0.0,0.0,0.0,0.0,0.0,0.0,0.0,0.0,0.0,0.161865,0.194238,-9.614781,0.0,0.0,0.0,0.0,0.0,0.0,0.0,0.0,0.0
1637022418196426560,1629,1637022418196142812,,0.0,0.0,0.0,0.0,-1.0,0.0,0.0,0.0,0.0,0.0,0.0,0.0,0.0,-0.00261799387799,0.00785398163397,-0.00523598775598,0.0,0.0,0.0,0.0,0.0,0.0,0.0,0.0,0.0,0.388476,0.129492,-9.582408,0.0,0.0,0.0,0.0,0.0,0.0,0.0,0.0,0.0
1637022418216724482,1630,1637022418216128261,,0.0,0.0,0.0,0.0,-1.0,0.0,0.0,0.0,0.0,0.0,0.0,0.0,0.0,-0.010471975512,0.00959931088597,-0.00261799387799,0.0,0.0,0.0,0.0,0.0,0.0,0.0,0.0,0.0,0.129492,0.161865,-9.647154,0.0,0.0,0.0,0.0,0.0,0.0,0.0,0.0,0.0
1637022418236359153,1631,1637022418236111273,,0.0,0.0,0.0,0.0,-1.0,0.0,0.0,0.0,0.0,0.0,0.0,0.0,0.0,-0.000872664625997,0.013962634016,-0.010471975512,0.0,0.0,0.0,0.0,0.0,0.0,0.0,0.0,0.0,0.194238,0.226611,-9.679527,0.0,0.0,0.0,0.0,0.0,0.0,0.0,0.0,0.0
1637022418257151534,1632,1637022418256528045,,0.0,0.0,0.0,0.0,-1.0,0.0,0.0,0.0,0.0,0.0,0.0,0.0,0.0,0.0,-0.000872664625997,-0.00698131700798,0.0,0.0,0.0,0.0,0.0,0.0,0.0,0.0,0.0,0.064746,-0.032373,-9.582408,0.0,0.0,0.0,0.0,0.0,0.0,0.0,0.0,0.0
1637022418276522962,1633,1637022418276096616,,0.0,0.0,0.0,0.0,-1.0,0.0,0.0,0.0,0.0,0.0,0.0,0.0,0.0,-0.00436332312999,0.00959931088597,0.01308996939,0.0,0.0,0.0,0.0,0.0,0.0,0.0,0.0,0.0,0.161865,0.194238,-9.744273,0.0,0.0,0.0,0.0,0.0,0.0,0.0,0.0,0.0
1637022418296630345,1634,1637022418296159281,,0.0,0.0,0.0,0.0,-1.0,0.0,0.0,0.0,0.0,0.0,0.0,0.0,0.0,-0.00174532925199,0.00261799387799,-0.00349065850399,0.0,0.0,0.0,0.0,0.0,0.0,0.0,0.0,0.0,0.258984,0.161865,-9.744273,0.0,0.0,0.0,0.0,0.0,0.0,0.0,0.0,0.0
1637022418316568357,1635,1637022418316105887,,0.0,0.0,0.0,0.0,-1.0,0.0,0.0,0.0,0.0,0.0,0.0,0.0,0.0,0.00698131700798,0.000872664625997,0.0,0.0,0.0,0.0,0.0,0.0,0.0,0.0,0.0,0.0,0.161865,0.129492,-9.614781,0.0,0.0,0.0,0.0,0.0,0.0,0.0,0.0,0.0
1637022418336238345,1636,1637022418335925842,,0.0,0.0,0.0,0.0,-1.0,0.0,0.0,0.0,0.0,0.0,0.0,0.0,0.0,0.00174532925199,-0.00698131700798,-0.00610865238198,0.0,0.0,0.0,0.0,0.0,0.0,0.0,0.0,0.0,0.161865,0.0,-9.647154,0.0,0.0,0.0,0.0,0.0,0.0,0.0,0.0,0.0
1637022418355994729,1637,1637022418355878482,,0.0,0.0,0.0,0.0,-1.0,0.0,0.0,0.0,0.0,0.0,0.0,0.0,0.0,-0.00349065850399,0.00261799387799,0.00261799387799,0.0,0.0,0.0,0.0,0.0,0.0,0.0,0.0,0.0,0.129492,0.194238,-9.647154,0.0,0.0,0.0,0.0,0.0,0.0,0.0,0.0,0.0
1637022418376022628,1638,1637022418375906230,,0.0,0.0,0.0,0.0,-1.0,0.0,0.0,0.0,0.0,0.0,0.0,0.0,0.0,0.0,0.000872664625997,0.0,0.0,0.0,0.0,0.0,0.0,0.0,0.0,0.0,0.0,0.194238,0.161865,-9.647154,0.0,0.0,0.0,0.0,0.0,0.0,0.0,0.0,0.0
1637022418396050954,1639,1637022418395827937,,0.0,0.0,0.0,0.0,-1.0,0.0,0.0,0.0,0.0,0.0,0.0,0.0,0.0,-0.010471975512,0.00698131700798,-0.00785398163397,0.0,0.0,0.0,0.0,0.0,0.0,0.0,0.0,0.0,0.194238,0.161865,-9.679527,0.0,0.0,0.0,0.0,0.0,0.0,0.0,0.0,0.0
1637022418416123160,1640,1637022418415863666,,0.0,0.0,0.0,0.0,-1.0,0.0,0.0,0.0,0.0,0.0,0.0,0.0,0.0,-0.00174532925199,0.00174532925199,-0.00872664625997,0.0,0.0,0.0,0.0,0.0,0.0,0.0,0.0,0.0,0.0,0.032373,-9.614781,0.0,0.0,0.0,0.0,0.0,0.0,0.0,0.0,0.0
1637022418436098504,1641,1637022418435898849,,0.0,0.0,0.0,0.0,-1.0,0.0,0.0,0.0,0.0,0.0,0.0,0.0,0.0,-0.00523598775598,-0.00872664625997,0.0,0.0,0.0,0.0,0.0,0.0,0.0,0.0,0.0,0.0,0.032373,0.161865,-9.582408,0.0,0.0,0.0,0.0,0.0,0.0,0.0,0.0,0.0
1637022418456159213,1642,1637022418455924125,,0.0,0.0,0.0,0.0,-1.0,0.0,0.0,0.0,0.0,0.0,0.0,0.0,0.0,-0.013962634016,0.00261799387799,-0.00698131700798,0.0,0.0,0.0,0.0,0.0,0.0,0.0,0.0,0.0,0.161865,0.356103,-9.582408,0.0,0.0,0.0,0.0,0.0,0.0,0.0,0.0,0.0
1637022418476207398,1643,1637022418475969693,,0.0,0.0,0.0,0.0,-1.0,0.0,0.0,0.0,0.0,0.0,0.0,0.0,0.0,-0.000872664625997,0.00959931088597,-0.00610865238198,0.0,0.0,0.0,0.0,0.0,0.0,0.0,0.0,0.0,0.129492,0.258984,-9.614781,0.0,0.0,0.0,0.0,0.0,0.0,0.0,0.0,0.0
1637022418496630094,1644,1637022418496204206,,0.0,0.0,0.0,0.0,-1.0,0.0,0.0,0.0,0.0,0.0,0.0,0.0,0.0,-0.000872664625997,0.0,0.0,0.0,0.0,0.0,0.0,0.0,0.0,0.0,0.0,0.0,0.097119,0.226611,-9.582408,0.0,0.0,0.0,0.0,0.0,0.0,0.0,0.0,0.0
1637022418517057823,1645,1637022418516354627,,0.0,0.0,0.0,0.0,-1.0,0.0,0.0,0.0,0.0,0.0,0.0,0.0,0.0,-0.000872664625997,-0.00610865238198,-0.013962634016,0.0,0.0,0.0,0.0,0.0,0.0,0.0,0.0,0.0,0.097119,0.194238,-9.7119,0.0,0.0,0.0,0.0,0.0,0.0,0.0,0.0,0.0
1637022418537628108,1646,1637022418536387774,,0.0,0.0,0.0,0.0,-1.0,0.0,0.0,0.0,0.0,0.0,0.0,0.0,0.0,-0.00174532925199,-0.00523598775598,-0.00261799387799,0.0,0.0,0.0,0.0,0.0,0.0,0.0,0.0,0.0,0.194238,0.226611,-9.647154,0.0,0.0,0.0,0.0,0.0,0.0,0.0,0.0,0.0
1637022418557522371,1647,1637022418556405692,,0.0,0.0,0.0,0.0,-1.0,0.0,0.0,0.0,0.0,0.0,0.0,0.0,0.0,0.000872664625997,0.00349065850399,-0.00349065850399,0.0,0.0,0.0,0.0,0.0,0.0,0.0,0.0,0.0,0.064746,0.161865,-9.550035,0.0,0.0,0.0,0.0,0.0,0.0,0.0,0.0,0.0
1637022418577822284,1648,1637022418577074232,,0.0,0.0,0.0,0.0,-1.0,0.0,0.0,0.0,0.0,0.0,0.0,0.0,0.0,-0.000872664625997,0.00261799387799,-0.00872664625997,0.0,0.0,0.0,0.0,0.0,0.0,0.0,0.0,0.0,0.161865,0.194238,-9.679527,0.0,0.0,0.0,0.0,0.0,0.0,0.0,0.0,0.0
1637022418597703702,1649,1637022418597293854,,0.0,0.0,0.0,0.0,-1.0,0.0,0.0,0.0,0.0,0.0,0.0,0.0,0.0,-0.00174532925199,-0.00261799387799,-0.00523598775598,0.0,0.0,0.0,0.0,0.0,0.0,0.0,0.0,0.0,0.097119,0.194238,-9.647154,0.0,0.0,0.0,0.0,0.0,0.0,0.0,0.0,0.0
1637022418616954901,1650,1637022418616206814,,0.0,0.0,0.0,0.0,-1.0,0.0,0.0,0.0,0.0,0.0,0.0,0.0,0.0,0.00523598775598,-0.00436332312999,-0.00436332312999,0.0,0.0,0.0,0.0,0.0,0.0,0.0,0.0,0.0,0.194238,-0.032373,-9.614781,0.0,0.0,0.0,0.0,0.0,0.0,0.0,0.0,0.0
1637022418636148662,1651,1637022418635985653,,0.0,0.0,0.0,0.0,-1.0,0.0,0.0,0.0,0.0,0.0,0.0,0.0,0.0,0.00523598775598,0.010471975512,-0.00349065850399,0.0,0.0,0.0,0.0,0.0,0.0,0.0,0.0,0.0,0.194238,0.161865,-9.647154,0.0,0.0,0.0,0.0,0.0,0.0,0.0,0.0,0.0
1637022418656062844,1652,1637022418655894017,,0.0,0.0,0.0,0.0,-1.0,0.0,0.0,0.0,0.0,0.0,0.0,0.0,0.0,-0.00523598775598,0.00698131700798,-0.00872664625997,0.0,0.0,0.0,0.0,0.0,0.0,0.0,0.0,0.0,0.161865,0.129492,-9.614781,0.0,0.0,0.0,0.0,0.0,0.0,0.0,0.0,0.0
1637022418676044756,1653,1637022418675882642,,0.0,0.0,0.0,0.0,-1.0,0.0,0.0,0.0,0.0,0.0,0.0,0.0,0.0,-0.00174532925199,0.00785398163397,-0.00349065850399,0.0,0.0,0.0,0.0,0.0,0.0,0.0,0.0,0.0,0.32373,0.194238,-9.647154,0.0,0.0,0.0,0.0,0.0,0.0,0.0,0.0,0.0
1637022418696255368,1654,1637022418695865314,,0.0,0.0,0.0,0.0,-1.0,0.0,0.0,0.0,0.0,0.0,0.0,0.0,0.0,0.00436332312999,0.0,-0.00872664625997,0.0,0.0,0.0,0.0,0.0,0.0,0.0,0.0,0.0,0.161865,0.161865,-9.7119,0.0,0.0,0.0,0.0,0.0,0.0,0.0,0.0,0.0
1637022418716008353,1655,1637022418715844922,,0.0,0.0,0.0,0.0,-1.0,0.0,0.0,0.0,0.0,0.0,0.0,0.0,0.0,-0.000872664625997,0.00610865238198,-0.00349065850399,0.0,0.0,0.0,0.0,0.0,0.0,0.0,0.0,0.0,-0.064746,0.194238,-9.582408,0.0,0.0,0.0,0.0,0.0,0.0,0.0,0.0,0.0
1637022418736139248,1656,1637022418735948214,,0.0,0.0,0.0,0.0,-1.0,0.0,0.0,0.0,0.0,0.0,0.0,0.0,0.0,-0.00698131700798,-0.00698131700798,0.00174532925199,0.0,0.0,0.0,0.0,0.0,0.0,0.0,0.0,0.0,0.129492,0.161865,-9.614781,0.0,0.0,0.0,0.0,0.0,0.0,0.0,0.0,0.0
1637022418756006496,1657,1637022418755897555,,0.0,0.0,0.0,0.0,-1.0,0.0,0.0,0.0,0.0,0.0,0.0,0.0,0.0,0.0,0.00174532925199,-0.00610865238198,0.0,0.0,0.0,0.0,0.0,0.0,0.0,0.0,0.0,0.161865,0.226611,-9.647154,0.0,0.0,0.0,0.0,0.0,0.0,0.0,0.0,0.0
1637022418776094726,1658,1637022418775947329,,0.0,0.0,0.0,0.0,-1.0,0.0,0.0,0.0,0.0,0.0,0.0,0.0,0.0,-0.011344640138,0.00785398163397,-0.00872664625997,0.0,0.0,0.0,0.0,0.0,0.0,0.0,0.0,0.0,0.064746,0.194238,-9.614781,0.0,0.0,0.0,0.0,0.0,0.0,0.0,0.0,0.0
1637022418796607426,1659,1637022418796142262,,0.0,0.0,0.0,0.0,-1.0,0.0,0.0,0.0,0.0,0.0,0.0,0.0,0.0,-0.00174532925199,0.00872664625997,0.00523598775598,0.0,0.0,0.0,0.0,0.0,0.0,0.0,0.0,0.0,0.129492,0.226611,-9.614781,0.0,0.0,0.0,0.0,0.0,0.0,0.0,0.0,0.0
1637022418818234869,1660,1637022418817852119,,0.0,0.0,0.0,0.0,-1.0,0.0,0.0,0.0,0.0,0.0,0.0,0.0,0.0,0.00174532925199,0.00436332312999,-0.00436332312999,0.0,0.0,0.0,0.0,0.0,0.0,0.0,0.0,0.0,0.129492,0.161865,-9.647154,0.0,0.0,0.0,0.0,0.0,0.0,0.0,0.0,0.0
1637022418837823419,1661,1637022418836494319,,0.0,0.0,0.0,0.0,-1.0,0.0,0.0,0.0,0.0,0.0,0.0,0.0,0.0,-0.00174532925199,0.00523598775598,-0.00959931088597,0.0,0.0,0.0,0.0,0.0,0.0,0.0,0.0,0.0,0.129492,0.194238,-9.550035,0.0,0.0,0.0,0.0,0.0,0.0,0.0,0.0,0.0
1637022418858475981,1662,1637022418856853581,,0.0,0.0,0.0,0.0,-1.0,0.0,0.0,0.0,0.0,0.0,0.0,0.0,0.0,0.00523598775598,0.00959931088597,-0.00174532925199,0.0,0.0,0.0,0.0,0.0,0.0,0.0,0.0,0.0,0.161865,0.194238,-9.679527,0.0,0.0,0.0,0.0,0.0,0.0,0.0,0.0,0.0
1637022418878298129,1663,1637022418876370174,,0.0,0.0,0.0,0.0,-1.0,0.0,0.0,0.0,0.0,0.0,0.0,0.0,0.0,0.00698131700798,0.0,0.0,0.0,0.0,0.0,0.0,0.0,0.0,0.0,0.0,0.0,-0.032373,0.161865,-9.614781,0.0,0.0,0.0,0.0,0.0,0.0,0.0,0.0,0.0
1637022418898538438,1664,1637022418897685191,,0.0,0.0,0.0,0.0,-1.0,0.0,0.0,0.0,0.0,0.0,0.0,0.0,0.0,0.00698131700798,0.00698131700798,-0.010471975512,0.0,0.0,0.0,0.0,0.0,0.0,0.0,0.0,0.0,0.194238,0.161865,-9.679527,0.0,0.0,0.0,0.0,0.0,0.0,0.0,0.0,0.0
1637022418917064747,1665,1637022418916493899,,0.0,0.0,0.0,0.0,-1.0,0.0,0.0,0.0,0.0,0.0,0.0,0.0,0.0,0.00610865238198,0.01308996939,-0.00174532925199,0.0,0.0,0.0,0.0,0.0,0.0,0.0,0.0,0.0,0.129492,0.194238,-9.647154,0.0,0.0,0.0,0.0,0.0,0.0,0.0,0.0,0.0
1637022418937002927,1666,1637022418936691398,,0.0,0.0,0.0,0.0,-1.0,0.0,0.0,0.0,0.0,0.0,0.0,0.0,0.0,0.0,0.00785398163397,-0.00872664625997,0.0,0.0,0.0,0.0,0.0,0.0,0.0,0.0,0.0,0.129492,0.194238,-9.647154,0.0,0.0,0.0,0.0,0.0,0.0,0.0,0.0,0.0
1637022418956536789,1667,1637022418956350938,,0.0,0.0,0.0,0.0,-1.0,0.0,0.0,0.0,0.0,0.0,0.0,0.0,0.0,-0.00174532925199,-0.00349065850399,0.000872664625997,0.0,0.0,0.0,0.0,0.0,0.0,0.0,0.0,0.0,0.129492,0.194238,-9.614781,0.0,0.0,0.0,0.0,0.0,0.0,0.0,0.0,0.0
1637022418976157493,1668,1637022418975981762,,0.0,0.0,0.0,0.0,-1.0,0.0,0.0,0.0,0.0,0.0,0.0,0.0,0.0,-0.00610865238198,0.00523598775598,-0.00610865238198,0.0,0.0,0.0,0.0,0.0,0.0,0.0,0.0,0.0,0.129492,0.161865,-9.614781,0.0,0.0,0.0,0.0,0.0,0.0,0.0,0.0,0.0
1637022418996119427,1669,1637022418995987370,,0.0,0.0,0.0,0.0,-1.0,0.0,0.0,0.0,0.0,0.0,0.0,0.0,0.0,0.00349065850399,0.00610865238198,-0.012217304764,0.0,0.0,0.0,0.0,0.0,0.0,0.0,0.0,0.0,0.064746,0.194238,-9.614781,0.0,0.0,0.0,0.0,0.0,0.0,0.0,0.0,0.0
1637022419016355649,1670,1637022419015981817,,0.0,0.0,0.0,0.0,-1.0,0.0,0.0,0.0,0.0,0.0,0.0,0.0,0.0,0.00436332312999,-0.00174532925199,-0.00523598775598,0.0,0.0,0.0,0.0,0.0,0.0,0.0,0.0,0.0,0.097119,0.161865,-9.614781,0.0,0.0,0.0,0.0,0.0,0.0,0.0,0.0,0.0
1637022419036197694,1671,1637022419035973452,,0.0,0.0,0.0,0.0,-1.0,0.0,0.0,0.0,0.0,0.0,0.0,0.0,0.0,-0.00959931088597,0.014835298642,-0.00698131700798,0.0,0.0,0.0,0.0,0.0,0.0,0.0,0.0,0.0,0.356103,0.129492,-9.7119,0.0,0.0,0.0,0.0,0.0,0.0,0.0,0.0,0.0
1637022419056115988,1672,1637022419055994874,,0.0,0.0,0.0,0.0,-1.0,0.0,0.0,0.0,0.0,0.0,0.0,0.0,0.0,-0.00349065850399,0.0,-0.00610865238198,0.0,0.0,0.0,0.0,0.0,0.0,0.0,0.0,0.0,0.129492,0.226611,-9.582408,0.0,0.0,0.0,0.0,0.0,0.0,0.0,0.0,0.0
1637022419076154126,1673,1637022419075980226,,0.0,0.0,0.0,0.0,-1.0,0.0,0.0,0.0,0.0,0.0,0.0,0.0,0.0,0.0,0.00261799387799,-0.00349065850399,0.0,0.0,0.0,0.0,0.0,0.0,0.0,0.0,0.0,0.097119,0.161865,-9.647154,0.0,0.0,0.0,0.0,0.0,0.0,0.0,0.0,0.0
1637022419096660600,1674,1637022419096174799,,0.0,0.0,0.0,0.0,-1.0,0.0,0.0,0.0,0.0,0.0,0.0,0.0,0.0,-0.00698131700798,0.01308996939,-0.00698131700798,0.0,0.0,0.0,0.0,0.0,0.0,0.0,0.0,0.0,0.129492,0.161865,-9.647154,0.0,0.0,0.0,0.0,0.0,0.0,0.0,0.0,0.0
1637022419117031424,1675,1637022419116784122,,0.0,0.0,0.0,0.0,-1.0,0.0,0.0,0.0,0.0,0.0,0.0,0.0,0.0,-0.00174532925199,0.000872664625997,-0.00872664625997,0.0,0.0,0.0,0.0,0.0,0.0,0.0,0.0,0.0,0.097119,0.161865,-9.582408,0.0,0.0,0.0,0.0,0.0,0.0,0.0,0.0,0.0
1637022419137401056,1676,1637022419136605830,,0.0,0.0,0.0,0.0,-1.0,0.0,0.0,0.0,0.0,0.0,0.0,0.0,0.0,-0.00959931088597,0.00261799387799,-0.00698131700798,0.0,0.0,0.0,0.0,0.0,0.0,0.0,0.0,0.0,0.161865,0.129492,-9.679527,0.0,0.0,0.0,0.0,0.0,0.0,0.0,0.0,0.0
1637022419157133468,1677,1637022419156328041,,0.0,0.0,0.0,0.0,-1.0,0.0,0.0,0.0,0.0,0.0,0.0,0.0,0.0,-0.00436332312999,-0.00174532925199,-0.01308996939,0.0,0.0,0.0,0.0,0.0,0.0,0.0,0.0,0.0,0.064746,0.129492,-9.614781,0.0,0.0,0.0,0.0,0.0,0.0,0.0,0.0,0.0
1637022419176931972,1678,1637022419176346710,,0.0,0.0,0.0,0.0,-1.0,0.0,0.0,0.0,0.0,0.0,0.0,0.0,0.0,-0.00349065850399,0.00174532925199,-0.0165806278939,0.0,0.0,0.0,0.0,0.0,0.0,0.0,0.0,0.0,0.161865,-0.032373,-9.776646,0.0,0.0,0.0,0.0,0.0,0.0,0.0,0.0,0.0
1637022419197104703,1679,1637022419196307649,,0.0,0.0,0.0,0.0,-1.0,0.0,0.0,0.0,0.0,0.0,0.0,0.0,0.0,-0.010471975512,-0.00174532925199,-0.00785398163397,0.0,0.0,0.0,0.0,0.0,0.0,0.0,0.0,0.0,0.064746,0.129492,-9.679527,0.0,0.0,0.0,0.0,0.0,0.0,0.0,0.0,0.0
1637022419216453064,1680,1637022419216024241,,0.0,0.0,0.0,0.0,-1.0,0.0,0.0,0.0,0.0,0.0,0.0,0.0,0.0,-0.00436332312999,0.00261799387799,-0.000872664625997,0.0,0.0,0.0,0.0,0.0,0.0,0.0,0.0,0.0,0.129492,-0.097119,-9.647154,0.0,0.0,0.0,0.0,0.0,0.0,0.0,0.0,0.0
1637022419236180585,1681,1637022419235906401,,0.0,0.0,0.0,0.0,-1.0,0.0,0.0,0.0,0.0,0.0,0.0,0.0,0.0,-0.000872664625997,0.00349065850399,0.00349065850399,0.0,0.0,0.0,0.0,0.0,0.0,0.0,0.0,0.0,0.194238,0.161865,-9.647154,0.0,0.0,0.0,0.0,0.0,0.0,0.0,0.0,0.0
1637022419255992758,1682,1637022419255911045,,0.0,0.0,0.0,0.0,-1.0,0.0,0.0,0.0,0.0,0.0,0.0,0.0,0.0,-0.00261799387799,0.00436332312999,-0.00610865238198,0.0,0.0,0.0,0.0,0.0,0.0,0.0,0.0,0.0,0.194238,0.194238,-9.550035,0.0,0.0,0.0,0.0,0.0,0.0,0.0,0.0,0.0
1637022419276369855,1683,1637022419276086755,,0.0,0.0,0.0,0.0,-1.0,0.0,0.0,0.0,0.0,0.0,0.0,0.0,0.0,0.00174532925199,0.00610865238198,-0.01308996939,0.0,0.0,0.0,0.0,0.0,0.0,0.0,0.0,0.0,0.129492,0.194238,-9.614781,0.0,0.0,0.0,0.0,0.0,0.0,0.0,0.0,0.0
1637022419296217729,1684,1637022419295882453,,0.0,0.0,0.0,0.0,-1.0,0.0,0.0,0.0,0.0,0.0,0.0,0.0,0.0,0.00261799387799,0.00872664625997,-0.00436332312999,0.0,0.0,0.0,0.0,0.0,0.0,0.0,0.0,0.0,0.129492,0.194238,-9.7119,0.0,0.0,0.0,0.0,0.0,0.0,0.0,0.0,0.0
1637022419316037041,1685,1637022419315946710,,0.0,0.0,0.0,0.0,-1.0,0.0,0.0,0.0,0.0,0.0,0.0,0.0,0.0,-0.00436332312999,0.00785398163397,-0.00698131700798,0.0,0.0,0.0,0.0,0.0,0.0,0.0,0.0,0.0,0.226611,0.194238,-9.679527,0.0,0.0,0.0,0.0,0.0,0.0,0.0,0.0,0.0
1637022419336078999,1686,1637022419335870736,,0.0,0.0,0.0,0.0,-1.0,0.0,0.0,0.0,0.0,0.0,0.0,0.0,0.0,-0.00523598775598,0.00261799387799,-0.00785398163397,0.0,0.0,0.0,0.0,0.0,0.0,0.0,0.0,0.0,0.194238,0.194238,-9.582408,0.0,0.0,0.0,0.0,0.0,0.0,0.0,0.0,0.0
1637022419356135297,1687,1637022419355978874,,0.0,0.0,0.0,0.0,-1.0,0.0,0.0,0.0,0.0,0.0,0.0,0.0,0.0,0.00174532925199,0.00785398163397,-0.00959931088597,0.0,0.0,0.0,0.0,0.0,0.0,0.0,0.0,0.0,0.226611,0.194238,-9.452916,0.0,0.0,0.0,0.0,0.0,0.0,0.0,0.0,0.0
1637022419376304136,1688,1637022419376078217,,0.0,0.0,0.0,0.0,-1.0,0.0,0.0,0.0,0.0,0.0,0.0,0.0,0.0,0.00523598775598,-0.000872664625997,0.00523598775598,0.0,0.0,0.0,0.0,0.0,0.0,0.0,0.0,0.0,0.161865,0.194238,-9.7119,0.0,0.0,0.0,0.0,0.0,0.0,0.0,0.0,0.0
1637022419396972296,1689,1637022419396461733,,0.0,0.0,0.0,0.0,-1.0,0.0,0.0,0.0,0.0,0.0,0.0,0.0,0.0,-0.00872664625997,0.0,-0.00698131700798,0.0,0.0,0.0,0.0,0.0,0.0,0.0,0.0,0.0,0.194238,0.161865,-9.7119,0.0,0.0,0.0,0.0,0.0,0.0,0.0,0.0,0.0
1637022419419619438,1690,1637022419418862167,,0.0,0.0,0.0,0.0,-1.0,0.0,0.0,0.0,0.0,0.0,0.0,0.0,0.0,0.00174532925199,0.00436332312999,0.00523598775598,0.0,0.0,0.0,0.0,0.0,0.0,0.0,0.0,0.0,0.258984,0.161865,-9.679527,0.0,0.0,0.0,0.0,0.0,0.0,0.0,0.0,0.0
1637022419438568292,1691,1637022419437281240,,0.0,0.0,0.0,0.0,-1.0,0.0,0.0,0.0,0.0,0.0,0.0,0.0,0.0,-0.00174532925199,0.00261799387799,-0.00523598775598,0.0,0.0,0.0,0.0,0.0,0.0,0.0,0.0,0.0,0.161865,0.161865,-9.647154,0.0,0.0,0.0,0.0,0.0,0.0,0.0,0.0,0.0
1637022419458262611,1692,1637022419457750066,,0.0,0.0,0.0,0.0,-1.0,0.0,0.0,0.0,0.0,0.0,0.0,0.0,0.0,0.00261799387799,0.012217304764,-0.00872664625997,0.0,0.0,0.0,0.0,0.0,0.0,0.0,0.0,0.0,0.032373,0.161865,-9.614781,0.0,0.0,0.0,0.0,0.0,0.0,0.0,0.0,0.0
1637022419478538431,1693,1637022419477378726,,0.0,0.0,0.0,0.0,-1.0,0.0,0.0,0.0,0.0,0.0,0.0,0.0,0.0,0.0,0.00610865238198,-0.00610865238198,0.0,0.0,0.0,0.0,0.0,0.0,0.0,0.0,0.0,0.161865,0.129492,-9.647154,0.0,0.0,0.0,0.0,0.0,0.0,0.0,0.0,0.0
1637022419497790309,1694,1637022419496918509,,0.0,0.0,0.0,0.0,-1.0,0.0,0.0,0.0,0.0,0.0,0.0,0.0,0.0,-0.00436332312999,0.012217304764,-0.00261799387799,0.0,0.0,0.0,0.0,0.0,0.0,0.0,0.0,0.0,0.194238,0.226611,-9.647154,0.0,0.0,0.0,0.0,0.0,0.0,0.0,0.0,0.0
1637022419516566262,1695,1637022419516287860,,0.0,0.0,0.0,0.0,-1.0,0.0,0.0,0.0,0.0,0.0,0.0,0.0,0.0,0.0,0.00698131700798,-0.011344640138,0.0,0.0,0.0,0.0,0.0,0.0,0.0,0.0,0.0,0.129492,0.194238,-9.776646,0.0,0.0,0.0,0.0,0.0,0.0,0.0,0.0,0.0
1637022419536202375,1696,1637022419536029519,,0.0,0.0,0.0,0.0,-1.0,0.0,0.0,0.0,0.0,0.0,0.0,0.0,0.0,0.00174532925199,0.000872664625997,-0.00872664625997,0.0,0.0,0.0,0.0,0.0,0.0,0.0,0.0,0.0,0.161865,0.161865,-9.744273,0.0,0.0,0.0,0.0,0.0,0.0,0.0,0.0,0.0
1637022419556258302,1697,1637022419556031657,,0.0,0.0,0.0,0.0,-1.0,0.0,0.0,0.0,0.0,0.0,0.0,0.0,0.0,0.000872664625997,0.00523598775598,0.000872664625997,0.0,0.0,0.0,0.0,0.0,0.0,0.0,0.0,0.0,0.161865,0.226611,-9.647154,0.0,0.0,0.0,0.0,0.0,0.0,0.0,0.0,0.0
1637022419576214564,1698,1637022419576060930,,0.0,0.0,0.0,0.0,-1.0,0.0,0.0,0.0,0.0,0.0,0.0,0.0,0.0,-0.00523598775598,0.00436332312999,-0.00872664625997,0.0,0.0,0.0,0.0,0.0,0.0,0.0,0.0,0.0,0.129492,0.226611,-9.614781,0.0,0.0,0.0,0.0,0.0,0.0,0.0,0.0,0.0
1637022419596260048,1699,1637022419595936630,,0.0,0.0,0.0,0.0,-1.0,0.0,0.0,0.0,0.0,0.0,0.0,0.0,0.0,0.00349065850399,0.00261799387799,0.0,0.0,0.0,0.0,0.0,0.0,0.0,0.0,0.0,0.0,0.194238,0.258984,-9.647154,0.0,0.0,0.0,0.0,0.0,0.0,0.0,0.0,0.0
1637022419616199840,1700,1637022419615877561,,0.0,0.0,0.0,0.0,-1.0,0.0,0.0,0.0,0.0,0.0,0.0,0.0,0.0,0.000872664625997,0.00436332312999,-0.00785398163397,0.0,0.0,0.0,0.0,0.0,0.0,0.0,0.0,0.0,0.194238,0.291357,-9.647154,0.0,0.0,0.0,0.0,0.0,0.0,0.0,0.0,0.0
1637022419636073786,1701,1637022419635958347,,0.0,0.0,0.0,0.0,-1.0,0.0,0.0,0.0,0.0,0.0,0.0,0.0,0.0,0.000872664625997,0.00785398163397,-0.00523598775598,0.0,0.0,0.0,0.0,0.0,0.0,0.0,0.0,0.0,0.161865,0.194238,-9.647154,0.0,0.0,0.0,0.0,0.0,0.0,0.0,0.0,0.0
1637022419656026356,1702,1637022419655891694,,0.0,0.0,0.0,0.0,-1.0,0.0,0.0,0.0,0.0,0.0,0.0,0.0,0.0,-0.00261799387799,-0.00174532925199,0.00698131700798,0.0,0.0,0.0,0.0,0.0,0.0,0.0,0.0,0.0,0.0,0.226611,-9.679527,0.0,0.0,0.0,0.0,0.0,0.0,0.0,0.0,0.0
1637022419676010916,1703,1637022419675839417,,0.0,0.0,0.0,0.0,-1.0,0.0,0.0,0.0,0.0,0.0,0.0,0.0,0.0,0.000872664625997,0.00698131700798,-0.011344640138,0.0,0.0,0.0,0.0,0.0,0.0,0.0,0.0,0.0,0.32373,0.161865,-9.647154,0.0,0.0,0.0,0.0,0.0,0.0,0.0,0.0,0.0
1637022419696186322,1704,1637022419696067608,,0.0,0.0,0.0,0.0,-1.0,0.0,0.0,0.0,0.0,0.0,0.0,0.0,0.0,-0.00349065850399,0.012217304764,-0.00436332312999,0.0,0.0,0.0,0.0,0.0,0.0,0.0,0.0,0.0,0.161865,0.226611,-9.679527,0.0,0.0,0.0,0.0,0.0,0.0,0.0,0.0,0.0
1637022419716091465,1705,1637022419715944688,,0.0,0.0,0.0,0.0,-1.0,0.0,0.0,0.0,0.0,0.0,0.0,0.0,0.0,0.00349065850399,0.012217304764,-0.010471975512,0.0,0.0,0.0,0.0,0.0,0.0,0.0,0.0,0.0,0.291357,0.226611,-9.614781,0.0,0.0,0.0,0.0,0.0,0.0,0.0,0.0,0.0
1637022419736068776,1706,1637022419735894367,,0.0,0.0,0.0,0.0,-1.0,0.0,0.0,0.0,0.0,0.0,0.0,0.0,0.0,0.00174532925199,0.00872664625997,-0.00959931088597,0.0,0.0,0.0,0.0,0.0,0.0,0.0,0.0,0.0,0.161865,0.129492,-9.647154,0.0,0.0,0.0,0.0,0.0,0.0,0.0,0.0,0.0
1637022419755960548,1707,1637022419755841983,,0.0,0.0,0.0,0.0,-1.0,0.0,0.0,0.0,0.0,0.0,0.0,0.0,0.0,0.0,0.00436332312999,-0.00698131700798,0.0,0.0,0.0,0.0,0.0,0.0,0.0,0.0,0.0,0.161865,0.194238,-9.614781,0.0,0.0,0.0,0.0,0.0,0.0,0.0,0.0,0.0
1637022419776026603,1708,1637022419775898285,,0.0,0.0,0.0,0.0,-1.0,0.0,0.0,0.0,0.0,0.0,0.0,0.0,0.0,0.00872664625997,0.00959931088597,-0.0157079632679,0.0,0.0,0.0,0.0,0.0,0.0,0.0,0.0,0.0,0.129492,0.226611,-9.614781,0.0,0.0,0.0,0.0,0.0,0.0,0.0,0.0,0.0
1637022419796206314,1709,1637022419795914477,,0.0,0.0,0.0,0.0,-1.0,0.0,0.0,0.0,0.0,0.0,0.0,0.0,0.0,0.00523598775598,0.00349065850399,-0.00523598775598,0.0,0.0,0.0,0.0,0.0,0.0,0.0,0.0,0.0,0.129492,0.194238,-9.744273,0.0,0.0,0.0,0.0,0.0,0.0,0.0,0.0,0.0
1637022419816171607,1710,1637022419815935054,,0.0,0.0,0.0,0.0,-1.0,0.0,0.0,0.0,0.0,0.0,0.0,0.0,0.0,-0.00698131700798,0.0,-0.00261799387799,0.0,0.0,0.0,0.0,0.0,0.0,0.0,0.0,0.0,0.161865,0.161865,-9.614781,0.0,0.0,0.0,0.0,0.0,0.0,0.0,0.0,0.0
1637022419836178561,1711,1637022419836014036,,0.0,0.0,0.0,0.0,-1.0,0.0,0.0,0.0,0.0,0.0,0.0,0.0,0.0,-0.00610865238198,0.0,-0.00349065850399,0.0,0.0,0.0,0.0,0.0,0.0,0.0,0.0,0.0,0.064746,0.161865,-9.679527,0.0,0.0,0.0,0.0,0.0,0.0,0.0,0.0,0.0
1637022419856853049,1712,1637022419856403603,,0.0,0.0,0.0,0.0,-1.0,0.0,0.0,0.0,0.0,0.0,0.0,0.0,0.0,-0.00436332312999,0.010471975512,-0.00785398163397,0.0,0.0,0.0,0.0,0.0,0.0,0.0,0.0,0.0,0.161865,0.194238,-9.614781,0.0,0.0,0.0,0.0,0.0,0.0,0.0,0.0,0.0
1637022419877280329,1713,1637022419876667628,,0.0,0.0,0.0,0.0,-1.0,0.0,0.0,0.0,0.0,0.0,0.0,0.0,0.0,-0.012217304764,0.0,0.00610865238198,0.0,0.0,0.0,0.0,0.0,0.0,0.0,0.0,0.0,0.129492,0.161865,-9.776646,0.0,0.0,0.0,0.0,0.0,0.0,0.0,0.0,0.0
1637022419897560933,1714,1637022419897046249,,0.0,0.0,0.0,0.0,-1.0,0.0,0.0,0.0,0.0,0.0,0.0,0.0,0.0,-0.00523598775598,0.00349065850399,0.00174532925199,0.0,0.0,0.0,0.0,0.0,0.0,0.0,0.0,0.0,0.161865,0.161865,-9.7119,0.0,0.0,0.0,0.0,0.0,0.0,0.0,0.0,0.0
1637022419918091393,1715,1637022419916986480,,0.0,0.0,0.0,0.0,-1.0,0.0,0.0,0.0,0.0,0.0,0.0,0.0,0.0,0.00698131700798,0.00959931088597,0.00174532925199,0.0,0.0,0.0,0.0,0.0,0.0,0.0,0.0,0.0,0.064746,0.032373,-9.614781,0.0,0.0,0.0,0.0,0.0,0.0,0.0,0.0,0.0
1637022419938182173,1716,1637022419936838261,,0.0,0.0,0.0,0.0,-1.0,0.0,0.0,0.0,0.0,0.0,0.0,0.0,0.0,0.00261799387799,0.0,-0.00349065850399,0.0,0.0,0.0,0.0,0.0,0.0,0.0,0.0,0.0,0.161865,0.129492,-9.679527,0.0,0.0,0.0,0.0,0.0,0.0,0.0,0.0,0.0
1637022419958656773,1717,1637022419958068632,,0.0,0.0,0.0,0.0,-1.0,0.0,0.0,0.0,0.0,0.0,0.0,0.0,0.0,-0.00174532925199,0.0174532925199,0.00698131700798,0.0,0.0,0.0,0.0,0.0,0.0,0.0,0.0,0.0,0.129492,0.097119,-9.550035,0.0,0.0,0.0,0.0,0.0,0.0,0.0,0.0,0.0
1637022419977945232,1718,1637022419976748517,,0.0,0.0,0.0,0.0,-1.0,0.0,0.0,0.0,0.0,0.0,0.0,0.0,0.0,-0.000872664625997,-0.000872664625997,0.000872664625997,0.0,0.0,0.0,0.0,0.0,0.0,0.0,0.0,0.0,0.161865,0.161865,-9.582408,0.0,0.0,0.0,0.0,0.0,0.0,0.0,0.0,0.0
1637022420000059349,1719,1637022419998801927,,0.0,0.0,0.0,0.0,-1.0,0.0,0.0,0.0,0.0,0.0,0.0,0.0,0.0,0.00349065850399,0.012217304764,-0.00785398163397,0.0,0.0,0.0,0.0,0.0,0.0,0.0,0.0,0.0,0.064746,0.194238,-9.647154,0.0,0.0,0.0,0.0,0.0,0.0,0.0,0.0,0.0
1637022420018078400,1720,1637022420016834658,,0.0,0.0,0.0,0.0,-1.0,0.0,0.0,0.0,0.0,0.0,0.0,0.0,0.0,-0.00174532925199,-0.000872664625997,0.0,0.0,0.0,0.0,0.0,0.0,0.0,0.0,0.0,0.0,0.129492,0.161865,-9.647154,0.0,0.0,0.0,0.0,0.0,0.0,0.0,0.0,0.0
1637022420036445328,1721,1637022420036030842,,0.0,0.0,0.0,0.0,-1.0,0.0,0.0,0.0,0.0,0.0,0.0,0.0,0.0,0.0,0.00436332312999,0.0,0.0,0.0,0.0,0.0,0.0,0.0,0.0,0.0,0.0,0.258984,0.161865,-9.841392,0.0,0.0,0.0,0.0,0.0,0.0,0.0,0.0,0.0
1637022420056346827,1722,1637022420055976351,,0.0,0.0,0.0,0.0,-1.0,0.0,0.0,0.0,0.0,0.0,0.0,0.0,0.0,-0.00523598775598,0.0,-0.00785398163397,0.0,0.0,0.0,0.0,0.0,0.0,0.0,0.0,0.0,0.194238,0.161865,-9.614781,0.0,0.0,0.0,0.0,0.0,0.0,0.0,0.0,0.0
1637022420076756577,1723,1637022420075915472,,0.0,0.0,0.0,0.0,-1.0,0.0,0.0,0.0,0.0,0.0,0.0,0.0,0.0,-0.00349065850399,0.00610865238198,0.000872664625997,0.0,0.0,0.0,0.0,0.0,0.0,0.0,0.0,0.0,0.129492,0.161865,-9.614781,0.0,0.0,0.0,0.0,0.0,0.0,0.0,0.0,0.0
1637022420096023726,1724,1637022420095846220,,0.0,0.0,0.0,0.0,-1.0,0.0,0.0,0.0,0.0,0.0,0.0,0.0,0.0,-0.000872664625997,0.00698131700798,0.000872664625997,0.0,0.0,0.0,0.0,0.0,0.0,0.0,0.0,0.0,0.161865,0.129492,-9.517662,0.0,0.0,0.0,0.0,0.0,0.0,0.0,0.0,0.0
1637022420116042353,1725,1637022420115880158,,0.0,0.0,0.0,0.0,-1.0,0.0,0.0,0.0,0.0,0.0,0.0,0.0,0.0,0.000872664625997,0.00174532925199,-0.00261799387799,0.0,0.0,0.0,0.0,0.0,0.0,0.0,0.0,0.0,0.161865,0.129492,-9.647154,0.0,0.0,0.0,0.0,0.0,0.0,0.0,0.0,0.0
1637022420135992209,1726,1637022420135890355,,0.0,0.0,0.0,0.0,-1.0,0.0,0.0,0.0,0.0,0.0,0.0,0.0,0.0,0.000872664625997,0.0,-0.00523598775598,0.0,0.0,0.0,0.0,0.0,0.0,0.0,0.0,0.0,0.161865,0.226611,-9.647154,0.0,0.0,0.0,0.0,0.0,0.0,0.0,0.0,0.0
1637022420156010879,1727,1637022420155895072,,0.0,0.0,0.0,0.0,-1.0,0.0,0.0,0.0,0.0,0.0,0.0,0.0,0.0,-0.00349065850399,0.00436332312999,-0.00174532925199,0.0,0.0,0.0,0.0,0.0,0.0,0.0,0.0,0.0,0.129492,0.129492,-9.614781,0.0,0.0,0.0,0.0,0.0,0.0,0.0,0.0,0.0
1637022420175976168,1728,1637022420175878669,,0.0,0.0,0.0,0.0,-1.0,0.0,0.0,0.0,0.0,0.0,0.0,0.0,0.0,0.00436332312999,0.0,0.0,0.0,0.0,0.0,0.0,0.0,0.0,0.0,0.0,0.0,0.097119,0.161865,-9.614781,0.0,0.0,0.0,0.0,0.0,0.0,0.0,0.0,0.0
1637022420196300311,1729,1637022420195995861,,0.0,0.0,0.0,0.0,-1.0,0.0,0.0,0.0,0.0,0.0,0.0,0.0,0.0,-0.00785398163397,0.000872664625997,-0.0191986217719,0.0,0.0,0.0,0.0,0.0,0.0,0.0,0.0,0.0,0.161865,0.129492,-9.614781,0.0,0.0,0.0,0.0,0.0,0.0,0.0,0.0,0.0
1637022420216112621,1730,1637022420215977430,,0.0,0.0,0.0,0.0,-1.0,0.0,0.0,0.0,0.0,0.0,0.0,0.0,0.0,-0.00872664625997,0.00785398163397,-0.00610865238198,0.0,0.0,0.0,0.0,0.0,0.0,0.0,0.0,0.0,0.194238,0.161865,-9.582408,0.0,0.0,0.0,0.0,0.0,0.0,0.0,0.0,0.0
1637022420236366506,1731,1637022420236061738,,0.0,0.0,0.0,0.0,-1.0,0.0,0.0,0.0,0.0,0.0,0.0,0.0,0.0,-0.00174532925199,0.00523598775598,-0.00959931088597,0.0,0.0,0.0,0.0,0.0,0.0,0.0,0.0,0.0,0.194238,0.161865,-9.614781,0.0,0.0,0.0,0.0,0.0,0.0,0.0,0.0,0.0
1637022420256151728,1732,1637022420256053252,,0.0,0.0,0.0,0.0,-1.0,0.0,0.0,0.0,0.0,0.0,0.0,0.0,0.0,-0.00872664625997,0.00261799387799,-0.011344640138,0.0,0.0,0.0,0.0,0.0,0.0,0.0,0.0,0.0,0.194238,0.161865,-9.679527,0.0,0.0,0.0,0.0,0.0,0.0,0.0,0.0,0.0
1637022420276009334,1733,1637022420275901590,,0.0,0.0,0.0,0.0,-1.0,0.0,0.0,0.0,0.0,0.0,0.0,0.0,0.0,0.00698131700798,0.010471975512,-0.00174532925199,0.0,0.0,0.0,0.0,0.0,0.0,0.0,0.0,0.0,0.161865,0.226611,-9.679527,0.0,0.0,0.0,0.0,0.0,0.0,0.0,0.0,0.0
1637022420296152252,1734,1637022420295899749,,0.0,0.0,0.0,0.0,-1.0,0.0,0.0,0.0,0.0,0.0,0.0,0.0,0.0,-0.00261799387799,0.00523598775598,-0.00610865238198,0.0,0.0,0.0,0.0,0.0,0.0,0.0,0.0,0.0,0.129492,0.194238,-9.647154,0.0,0.0,0.0,0.0,0.0,0.0,0.0,0.0,0.0
1637022420316163586,1735,1637022420315921144,,0.0,0.0,0.0,0.0,-1.0,0.0,0.0,0.0,0.0,0.0,0.0,0.0,0.0,-0.00610865238198,0.00959931088597,0.00349065850399,0.0,0.0,0.0,0.0,0.0,0.0,0.0,0.0,0.0,0.032373,0.194238,-9.517662,0.0,0.0,0.0,0.0,0.0,0.0,0.0,0.0,0.0
1637022420336266077,1736,1637022420336027327,,0.0,0.0,0.0,0.0,-1.0,0.0,0.0,0.0,0.0,0.0,0.0,0.0,0.0,0.010471975512,0.0,-0.00436332312999,0.0,0.0,0.0,0.0,0.0,0.0,0.0,0.0,0.0,0.161865,0.226611,-9.614781,0.0,0.0,0.0,0.0,0.0,0.0,0.0,0.0,0.0
1637022420356789613,1737,1637022420356408256,,0.0,0.0,0.0,0.0,-1.0,0.0,0.0,0.0,0.0,0.0,0.0,0.0,0.0,-0.00698131700798,0.00698131700798,0.0,0.0,0.0,0.0,0.0,0.0,0.0,0.0,0.0,0.0,0.194238,0.161865,-9.582408,0.0,0.0,0.0,0.0,0.0,0.0,0.0,0.0,0.0
1637022420376621279,1738,1637022420376213532,,0.0,0.0,0.0,0.0,-1.0,0.0,0.0,0.0,0.0,0.0,0.0,0.0,0.0,-0.00610865238198,0.00261799387799,0.0,0.0,0.0,0.0,0.0,0.0,0.0,0.0,0.0,0.0,0.0,0.194238,-9.647154,0.0,0.0,0.0,0.0,0.0,0.0,0.0,0.0,0.0
1637022420398418683,1739,1637022420396936667,,0.0,0.0,0.0,0.0,-1.0,0.0,0.0,0.0,0.0,0.0,0.0,0.0,0.0,-0.010471975512,0.01308996939,-0.00523598775598,0.0,0.0,0.0,0.0,0.0,0.0,0.0,0.0,0.0,-0.032373,-0.064746,-9.582408,0.0,0.0,0.0,0.0,0.0,0.0,0.0,0.0,0.0
1637022420417068924,1740,1637022420416699766,,0.0,0.0,0.0,0.0,-1.0,0.0,0.0,0.0,0.0,0.0,0.0,0.0,0.0,-0.00349065850399,0.000872664625997,-0.00349065850399,0.0,0.0,0.0,0.0,0.0,0.0,0.0,0.0,0.0,0.194238,0.129492,-9.614781,0.0,0.0,0.0,0.0,0.0,0.0,0.0,0.0,0.0
1637022420437420879,1741,1637022420436753653,,0.0,0.0,0.0,0.0,-1.0,0.0,0.0,0.0,0.0,0.0,0.0,0.0,0.0,0.00436332312999,0.00349065850399,-0.000872664625997,0.0,0.0,0.0,0.0,0.0,0.0,0.0,0.0,0.0,0.161865,0.161865,-9.614781,0.0,0.0,0.0,0.0,0.0,0.0,0.0,0.0,0.0
1637022420458627684,1742,1637022420457269516,,0.0,0.0,0.0,0.0,-1.0,0.0,0.0,0.0,0.0,0.0,0.0,0.0,0.0,-0.00261799387799,0.00174532925199,-0.00698131700798,0.0,0.0,0.0,0.0,0.0,0.0,0.0,0.0,0.0,0.129492,0.226611,-9.614781,0.0,0.0,0.0,0.0,0.0,0.0,0.0,0.0,0.0
1637022420478555332,1743,1637022420477297144,,0.0,0.0,0.0,0.0,-1.0,0.0,0.0,0.0,0.0,0.0,0.0,0.0,0.0,0.00523598775598,0.0,-0.00174532925199,0.0,0.0,0.0,0.0,0.0,0.0,0.0,0.0,0.0,0.161865,0.226611,-9.647154,0.0,0.0,0.0,0.0,0.0,0.0,0.0,0.0,0.0
1637022420497697099,1744,1637022420496223890,,0.0,0.0,0.0,0.0,-1.0,0.0,0.0,0.0,0.0,0.0,0.0,0.0,0.0,-0.010471975512,0.00523598775598,-0.00959931088597,0.0,0.0,0.0,0.0,0.0,0.0,0.0,0.0,0.0,0.194238,0.258984,-9.647154,0.0,0.0,0.0,0.0,0.0,0.0,0.0,0.0,0.0
1637022420516489414,1745,1637022420516002196,,0.0,0.0,0.0,0.0,-1.0,0.0,0.0,0.0,0.0,0.0,0.0,0.0,0.0,0.00785398163397,0.00174532925199,-0.000872664625997,0.0,0.0,0.0,0.0,0.0,0.0,0.0,0.0,0.0,0.194238,0.420849,-9.647154,0.0,0.0,0.0,0.0,0.0,0.0,0.0,0.0,0.0
1637022420536031645,1746,1637022420535880910,,0.0,0.0,0.0,0.0,-1.0,0.0,0.0,0.0,0.0,0.0,0.0,0.0,0.0,0.0,0.0,0.00785398163397,0.0,0.0,0.0,0.0,0.0,0.0,0.0,0.0,0.0,0.129492,0.291357,-9.614781,0.0,0.0,0.0,0.0,0.0,0.0,0.0,0.0,0.0
1637022420556122850,1747,1637022420555908549,,0.0,0.0,0.0,0.0,-1.0,0.0,0.0,0.0,0.0,0.0,0.0,0.0,0.0,-0.00785398163397,0.00523598775598,-0.00261799387799,0.0,0.0,0.0,0.0,0.0,0.0,0.0,0.0,0.0,0.129492,0.226611,-9.679527,0.0,0.0,0.0,0.0,0.0,0.0,0.0,0.0,0.0
1637022420576045584,1748,1637022420575852246,,0.0,0.0,0.0,0.0,-1.0,0.0,0.0,0.0,0.0,0.0,0.0,0.0,0.0,0.0,0.00261799387799,0.000872664625997,0.0,0.0,0.0,0.0,0.0,0.0,0.0,0.0,0.0,0.129492,0.194238,-9.841392,0.0,0.0,0.0,0.0,0.0,0.0,0.0,0.0,0.0
1637022420596398411,1749,1637022420595917920,,0.0,0.0,0.0,0.0,-1.0,0.0,0.0,0.0,0.0,0.0,0.0,0.0,0.0,0.0,0.00785398163397,-0.010471975512,0.0,0.0,0.0,0.0,0.0,0.0,0.0,0.0,0.0,0.194238,0.194238,-9.614781,0.0,0.0,0.0,0.0,0.0,0.0,0.0,0.0,0.0
1637022420616263406,1750,1637022420615962634,,0.0,0.0,0.0,0.0,-1.0,0.0,0.0,0.0,0.0,0.0,0.0,0.0,0.0,0.000872664625997,-0.000872664625997,-0.00959931088597,0.0,0.0,0.0,0.0,0.0,0.0,0.0,0.0,0.0,0.161865,0.161865,-9.647154,0.0,0.0,0.0,0.0,0.0,0.0,0.0,0.0,0.0
1637022420636154719,1751,1637022420635914151,,0.0,0.0,0.0,0.0,-1.0,0.0,0.0,0.0,0.0,0.0,0.0,0.0,0.0,0.000872664625997,-0.00261799387799,-0.00261799387799,0.0,0.0,0.0,0.0,0.0,0.0,0.0,0.0,0.0,0.129492,0.194238,-9.614781,0.0,0.0,0.0,0.0,0.0,0.0,0.0,0.0,0.0
1637022420656058065,1752,1637022420655953346,,0.0,0.0,0.0,0.0,-1.0,0.0,0.0,0.0,0.0,0.0,0.0,0.0,0.0,-0.00261799387799,0.000872664625997,-0.00872664625997,0.0,0.0,0.0,0.0,0.0,0.0,0.0,0.0,0.0,0.129492,0.097119,-9.614781,0.0,0.0,0.0,0.0,0.0,0.0,0.0,0.0,0.0
1637022420676540386,1753,1637022420676172391,,0.0,0.0,0.0,0.0,-1.0,0.0,0.0,0.0,0.0,0.0,0.0,0.0,0.0,-0.00523598775598,0.00872664625997,-0.000872664625997,0.0,0.0,0.0,0.0,0.0,0.0,0.0,0.0,0.0,0.161865,0.226611,-9.614781,0.0,0.0,0.0,0.0,0.0,0.0,0.0,0.0,0.0
1637022420696601091,1754,1637022420696206782,,0.0,0.0,0.0,0.0,-1.0,0.0,0.0,0.0,0.0,0.0,0.0,0.0,0.0,0.00610865238198,0.000872664625997,-0.00785398163397,0.0,0.0,0.0,0.0,0.0,0.0,0.0,0.0,0.0,0.097119,0.161865,-9.614781,0.0,0.0,0.0,0.0,0.0,0.0,0.0,0.0,0.0
1637022420716767074,1755,1637022420716177855,,0.0,0.0,0.0,0.0,-1.0,0.0,0.0,0.0,0.0,0.0,0.0,0.0,0.0,0.00349065850399,-0.00174532925199,-0.00610865238198,0.0,0.0,0.0,0.0,0.0,0.0,0.0,0.0,0.0,0.161865,0.194238,-9.647154,0.0,0.0,0.0,0.0,0.0,0.0,0.0,0.0,0.0
1637022420736582784,1756,1637022420736204546,,0.0,0.0,0.0,0.0,-1.0,0.0,0.0,0.0,0.0,0.0,0.0,0.0,0.0,0.00698131700798,-0.00174532925199,-0.00349065850399,0.0,0.0,0.0,0.0,0.0,0.0,0.0,0.0,0.0,0.129492,0.194238,-9.614781,0.0,0.0,0.0,0.0,0.0,0.0,0.0,0.0,0.0
1637022420756482413,1757,1637022420756170142,,0.0,0.0,0.0,0.0,-1.0,0.0,0.0,0.0,0.0,0.0,0.0,0.0,0.0,-0.01308996939,0.00261799387799,0.00174532925199,0.0,0.0,0.0,0.0,0.0,0.0,0.0,0.0,0.0,0.161865,0.097119,-9.582408,0.0,0.0,0.0,0.0,0.0,0.0,0.0,0.0,0.0
1637022420776524156,1758,1637022420776142134,,0.0,0.0,0.0,0.0,-1.0,0.0,0.0,0.0,0.0,0.0,0.0,0.0,0.0,0.00174532925199,0.0,-0.00261799387799,0.0,0.0,0.0,0.0,0.0,0.0,0.0,0.0,0.0,0.194238,0.291357,-9.582408,0.0,0.0,0.0,0.0,0.0,0.0,0.0,0.0,0.0
1637022420797177569,1759,1637022420796230567,,0.0,0.0,0.0,0.0,-1.0,0.0,0.0,0.0,0.0,0.0,0.0,0.0,0.0,-0.00698131700798,0.000872664625997,-0.00349065850399,0.0,0.0,0.0,0.0,0.0,0.0,0.0,0.0,0.0,0.161865,0.194238,-9.614781,0.0,0.0,0.0,0.0,0.0,0.0,0.0,0.0,0.0
1637022420816615362,1760,1637022420816119152,,0.0,0.0,0.0,0.0,-1.0,0.0,0.0,0.0,0.0,0.0,0.0,0.0,0.0,0.00436332312999,0.000872664625997,-0.00959931088597,0.0,0.0,0.0,0.0,0.0,0.0,0.0,0.0,0.0,0.161865,0.161865,-9.550035,0.0,0.0,0.0,0.0,0.0,0.0,0.0,0.0,0.0
1637022420837083762,1761,1637022420836164027,,0.0,0.0,0.0,0.0,-1.0,0.0,0.0,0.0,0.0,0.0,0.0,0.0,0.0,0.00349065850399,0.0,-0.013962634016,0.0,0.0,0.0,0.0,0.0,0.0,0.0,0.0,0.0,0.129492,0.161865,-9.776646,0.0,0.0,0.0,0.0,0.0,0.0,0.0,0.0,0.0
1637022420856315453,1762,1637022420855922392,,0.0,0.0,0.0,0.0,-1.0,0.0,0.0,0.0,0.0,0.0,0.0,0.0,0.0,-0.000872664625997,-0.00698131700798,-0.00523598775598,0.0,0.0,0.0,0.0,0.0,0.0,0.0,0.0,0.0,0.129492,0.129492,-9.7119,0.0,0.0,0.0,0.0,0.0,0.0,0.0,0.0,0.0
1637022420876548826,1763,1637022420876280196,,0.0,0.0,0.0,0.0,-1.0,0.0,0.0,0.0,0.0,0.0,0.0,0.0,0.0,-0.00261799387799,-0.000872664625997,-0.01308996939,0.0,0.0,0.0,0.0,0.0,0.0,0.0,0.0,0.0,0.129492,0.161865,-9.582408,0.0,0.0,0.0,0.0,0.0,0.0,0.0,0.0,0.0
1637022420896222559,1764,1637022420895885292,,0.0,0.0,0.0,0.0,-1.0,0.0,0.0,0.0,0.0,0.0,0.0,0.0,0.0,-0.01308996939,-0.00261799387799,-0.000872664625997,0.0,0.0,0.0,0.0,0.0,0.0,0.0,0.0,0.0,0.194238,0.194238,-9.614781,0.0,0.0,0.0,0.0,0.0,0.0,0.0,0.0,0.0
1637022420916021883,1765,1637022420915905565,,0.0,0.0,0.0,0.0,-1.0,0.0,0.0,0.0,0.0,0.0,0.0,0.0,0.0,-0.00959931088597,-0.00174532925199,0.00174532925199,0.0,0.0,0.0,0.0,0.0,0.0,0.0,0.0,0.0,0.064746,0.161865,-9.517662,0.0,0.0,0.0,0.0,0.0,0.0,0.0,0.0,0.0
1637022420936035769,1766,1637022420935939025,,0.0,0.0,0.0,0.0,-1.0,0.0,0.0,0.0,0.0,0.0,0.0,0.0,0.0,-0.00698131700798,-0.00523598775598,-0.00349065850399,0.0,0.0,0.0,0.0,0.0,0.0,0.0,0.0,0.0,0.129492,0.129492,-9.647154,0.0,0.0,0.0,0.0,0.0,0.0,0.0,0.0,0.0
1637022420956217982,1767,1637022420955994564,,0.0,0.0,0.0,0.0,-1.0,0.0,0.0,0.0,0.0,0.0,0.0,0.0,0.0,-0.00436332312999,0.00261799387799,-0.00698131700798,0.0,0.0,0.0,0.0,0.0,0.0,0.0,0.0,0.0,0.194238,0.291357,-9.614781,0.0,0.0,0.0,0.0,0.0,0.0,0.0,0.0,0.0
1637022420976306325,1768,1637022420976080668,,0.0,0.0,0.0,0.0,-1.0,0.0,0.0,0.0,0.0,0.0,0.0,0.0,0.0,-0.00523598775598,0.0,0.00261799387799,0.0,0.0,0.0,0.0,0.0,0.0,0.0,0.0,0.0,0.161865,0.258984,-9.679527,0.0,0.0,0.0,0.0,0.0,0.0,0.0,0.0,0.0
1637022420996493259,1769,1637022420996176566,,0.0,0.0,0.0,0.0,-1.0,0.0,0.0,0.0,0.0,0.0,0.0,0.0,0.0,-0.00349065850399,0.00174532925199,-0.00959931088597,0.0,0.0,0.0,0.0,0.0,0.0,0.0,0.0,0.0,0.161865,0.161865,-9.679527,0.0,0.0,0.0,0.0,0.0,0.0,0.0,0.0,0.0
1637022421017328688,1770,1637022421016340439,,0.0,0.0,0.0,0.0,-1.0,0.0,0.0,0.0,0.0,0.0,0.0,0.0,0.0,-0.00698131700798,0.00523598775598,-0.012217304764,0.0,0.0,0.0,0.0,0.0,0.0,0.0,0.0,0.0,0.161865,0.194238,-9.647154,0.0,0.0,0.0,0.0,0.0,0.0,0.0,0.0,0.0
1637022421037021387,1771,1637022421036202743,,0.0,0.0,0.0,0.0,-1.0,0.0,0.0,0.0,0.0,0.0,0.0,0.0,0.0,-0.00174532925199,0.0,-0.00261799387799,0.0,0.0,0.0,0.0,0.0,0.0,0.0,0.0,0.0,0.161865,0.129492,-9.355797,0.0,0.0,0.0,0.0,0.0,0.0,0.0,0.0,0.0
1637022421057310592,1772,1637022421056350157,,0.0,0.0,0.0,0.0,-1.0,0.0,0.0,0.0,0.0,0.0,0.0,0.0,0.0,-0.00174532925199,0.0157079632679,-0.00610865238198,0.0,0.0,0.0,0.0,0.0,0.0,0.0,0.0,0.0,0.129492,0.161865,-9.550035,0.0,0.0,0.0,0.0,0.0,0.0,0.0,0.0,0.0
1637022421076948745,1773,1637022421076322638,,0.0,0.0,0.0,0.0,-1.0,0.0,0.0,0.0,0.0,0.0,0.0,0.0,0.0,-0.00349065850399,0.00436332312999,-0.00349065850399,0.0,0.0,0.0,0.0,0.0,0.0,0.0,0.0,0.0,0.161865,0.161865,-9.679527,0.0,0.0,0.0,0.0,0.0,0.0,0.0,0.0,0.0
1637022421096735724,1774,1637022421096253405,,0.0,0.0,0.0,0.0,-1.0,0.0,0.0,0.0,0.0,0.0,0.0,0.0,0.0,-0.00785398163397,0.00785398163397,-0.01308996939,0.0,0.0,0.0,0.0,0.0,0.0,0.0,0.0,0.0,0.161865,0.194238,-9.679527,0.0,0.0,0.0,0.0,0.0,0.0,0.0,0.0,0.0
1637022421116758044,1775,1637022421116314191,,0.0,0.0,0.0,0.0,-1.0,0.0,0.0,0.0,0.0,0.0,0.0,0.0,0.0,-0.00436332312999,0.00610865238198,0.000872664625997,0.0,0.0,0.0,0.0,0.0,0.0,0.0,0.0,0.0,0.129492,0.129492,-9.679527,0.0,0.0,0.0,0.0,0.0,0.0,0.0,0.0,0.0
1637022421136618164,1776,1637022421136252803,,0.0,0.0,0.0,0.0,-1.0,0.0,0.0,0.0,0.0,0.0,0.0,0.0,0.0,-0.00698131700798,0.011344640138,-0.0191986217719,0.0,0.0,0.0,0.0,0.0,0.0,0.0,0.0,0.0,0.0,0.226611,-9.647154,0.0,0.0,0.0,0.0,0.0,0.0,0.0,0.0,0.0
1637022421156180349,1777,1637022421156030289,,0.0,0.0,0.0,0.0,-1.0,0.0,0.0,0.0,0.0,0.0,0.0,0.0,0.0,0.00436332312999,0.00959931088597,0.00349065850399,0.0,0.0,0.0,0.0,0.0,0.0,0.0,0.0,0.0,0.129492,0.226611,-9.517662,0.0,0.0,0.0,0.0,0.0,0.0,0.0,0.0,0.0
1637022421176067013,1778,1637022421175947315,,0.0,0.0,0.0,0.0,-1.0,0.0,0.0,0.0,0.0,0.0,0.0,0.0,0.0,-0.000872664625997,0.00785398163397,-0.00174532925199,0.0,0.0,0.0,0.0,0.0,0.0,0.0,0.0,0.0,-0.032373,0.161865,-9.647154,0.0,0.0,0.0,0.0,0.0,0.0,0.0,0.0,0.0
1637022421196256270,1779,1637022421195994185,,0.0,0.0,0.0,0.0,-1.0,0.0,0.0,0.0,0.0,0.0,0.0,0.0,0.0,-0.00261799387799,0.00523598775598,-0.00523598775598,0.0,0.0,0.0,0.0,0.0,0.0,0.0,0.0,0.0,0.129492,0.161865,-9.582408,0.0,0.0,0.0,0.0,0.0,0.0,0.0,0.0,0.0
1637022421216379852,1780,1637022421215975742,,0.0,0.0,0.0,0.0,-1.0,0.0,0.0,0.0,0.0,0.0,0.0,0.0,0.0,0.00261799387799,0.00261799387799,0.00261799387799,0.0,0.0,0.0,0.0,0.0,0.0,0.0,0.0,0.0,0.226611,0.129492,-9.582408,0.0,0.0,0.0,0.0,0.0,0.0,0.0,0.0,0.0
1637022421236107684,1781,1637022421235957257,,0.0,0.0,0.0,0.0,-1.0,0.0,0.0,0.0,0.0,0.0,0.0,0.0,0.0,0.00959931088597,0.0,-0.00698131700798,0.0,0.0,0.0,0.0,0.0,0.0,0.0,0.0,0.0,0.226611,0.161865,-9.679527,0.0,0.0,0.0,0.0,0.0,0.0,0.0,0.0,0.0
1637022421256115606,1782,1637022421255954784,,0.0,0.0,0.0,0.0,-1.0,0.0,0.0,0.0,0.0,0.0,0.0,0.0,0.0,0.00610865238198,0.00174532925199,-0.00785398163397,0.0,0.0,0.0,0.0,0.0,0.0,0.0,0.0,0.0,0.161865,0.194238,-9.647154,0.0,0.0,0.0,0.0,0.0,0.0,0.0,0.0,0.0
1637022421276223513,1783,1637022421275967389,,0.0,0.0,0.0,0.0,-1.0,0.0,0.0,0.0,0.0,0.0,0.0,0.0,0.0,0.00261799387799,0.00523598775598,0.00349065850399,0.0,0.0,0.0,0.0,0.0,0.0,0.0,0.0,0.0,0.161865,0.226611,-9.550035,0.0,0.0,0.0,0.0,0.0,0.0,0.0,0.0,0.0
1637022421296957284,1784,1637022421296317140,,0.0,0.0,0.0,0.0,-1.0,0.0,0.0,0.0,0.0,0.0,0.0,0.0,0.0,-0.00261799387799,0.000872664625997,-0.00698131700798,0.0,0.0,0.0,0.0,0.0,0.0,0.0,0.0,0.0,0.161865,0.097119,-9.614781,0.0,0.0,0.0,0.0,0.0,0.0,0.0,0.0,0.0
1637022421318203539,1785,1637022421316980738,,0.0,0.0,0.0,0.0,-1.0,0.0,0.0,0.0,0.0,0.0,0.0,0.0,0.0,-0.00436332312999,0.00698131700798,-0.00872664625997,0.0,0.0,0.0,0.0,0.0,0.0,0.0,0.0,0.0,0.194238,0.226611,-9.679527,0.0,0.0,0.0,0.0,0.0,0.0,0.0,0.0,0.0
1637022421338239057,1786,1637022421336961561,,0.0,0.0,0.0,0.0,-1.0,0.0,0.0,0.0,0.0,0.0,0.0,0.0,0.0,-0.013962634016,0.00872664625997,-0.011344640138,0.0,0.0,0.0,0.0,0.0,0.0,0.0,0.0,0.0,0.161865,0.226611,-9.647154,0.0,0.0,0.0,0.0,0.0,0.0,0.0,0.0,0.0
1637022421359105664,1787,1637022421356969361,,0.0,0.0,0.0,0.0,-1.0,0.0,0.0,0.0,0.0,0.0,0.0,0.0,0.0,-0.00436332312999,0.00174532925199,-0.00261799387799,0.0,0.0,0.0,0.0,0.0,0.0,0.0,0.0,0.0,0.129492,0.226611,-9.647154,0.0,0.0,0.0,0.0,0.0,0.0,0.0,0.0,0.0
1637022421378323248,1788,1637022421377832396,,0.0,0.0,0.0,0.0,-1.0,0.0,0.0,0.0,0.0,0.0,0.0,0.0,0.0,-0.00436332312999,-0.00349065850399,-0.00610865238198,0.0,0.0,0.0,0.0,0.0,0.0,0.0,0.0,0.0,0.161865,0.194238,-9.679527,0.0,0.0,0.0,0.0,0.0,0.0,0.0,0.0,0.0
1637022421398349222,1789,1637022421396971337,,0.0,0.0,0.0,0.0,-1.0,0.0,0.0,0.0,0.0,0.0,0.0,0.0,0.0,0.00174532925199,-0.00261799387799,-0.00959931088597,0.0,0.0,0.0,0.0,0.0,0.0,0.0,0.0,0.0,0.129492,0.129492,-9.614781,0.0,0.0,0.0,0.0,0.0,0.0,0.0,0.0,0.0
1637022421416713324,1790,1637022421416152955,,0.0,0.0,0.0,0.0,-1.0,0.0,0.0,0.0,0.0,0.0,0.0,0.0,0.0,-0.00523598775598,0.00785398163397,0.00785398163397,0.0,0.0,0.0,0.0,0.0,0.0,0.0,0.0,0.0,0.129492,0.161865,-9.679527,0.0,0.0,0.0,0.0,0.0,0.0,0.0,0.0,0.0
1637022421436231984,1791,1637022421435980311,,0.0,0.0,0.0,0.0,-1.0,0.0,0.0,0.0,0.0,0.0,0.0,0.0,0.0,0.00174532925199,0.00349065850399,0.000872664625997,0.0,0.0,0.0,0.0,0.0,0.0,0.0,0.0,0.0,0.291357,0.291357,-9.647154,0.0,0.0,0.0,0.0,0.0,0.0,0.0,0.0,0.0
1637022421456086743,1792,1637022421455875963,,0.0,0.0,0.0,0.0,-1.0,0.0,0.0,0.0,0.0,0.0,0.0,0.0,0.0,-0.00523598775598,0.00261799387799,-0.00872664625997,0.0,0.0,0.0,0.0,0.0,0.0,0.0,0.0,0.0,0.161865,0.161865,-9.614781,0.0,0.0,0.0,0.0,0.0,0.0,0.0,0.0,0.0
1637022421476173840,1793,1637022421475896137,,0.0,0.0,0.0,0.0,-1.0,0.0,0.0,0.0,0.0,0.0,0.0,0.0,0.0,-0.00698131700798,0.00610865238198,0.00872664625997,0.0,0.0,0.0,0.0,0.0,0.0,0.0,0.0,0.0,0.226611,0.194238,-9.614781,0.0,0.0,0.0,0.0,0.0,0.0,0.0,0.0,0.0
1637022421496182207,1794,1637022421495879359,,0.0,0.0,0.0,0.0,-1.0,0.0,0.0,0.0,0.0,0.0,0.0,0.0,0.0,-0.011344640138,0.00872664625997,0.0,0.0,0.0,0.0,0.0,0.0,0.0,0.0,0.0,0.0,0.194238,0.226611,-9.744273,0.0,0.0,0.0,0.0,0.0,0.0,0.0,0.0,0.0
1637022421516063055,1795,1637022421515942323,,0.0,0.0,0.0,0.0,-1.0,0.0,0.0,0.0,0.0,0.0,0.0,0.0,0.0,-0.00523598775598,-0.00349065850399,-0.00785398163397,0.0,0.0,0.0,0.0,0.0,0.0,0.0,0.0,0.0,0.129492,0.194238,-9.582408,0.0,0.0,0.0,0.0,0.0,0.0,0.0,0.0,0.0
1637022421536033920,1796,1637022421535912092,,0.0,0.0,0.0,0.0,-1.0,0.0,0.0,0.0,0.0,0.0,0.0,0.0,0.0,-0.00785398163397,0.00872664625997,-0.00959931088597,0.0,0.0,0.0,0.0,0.0,0.0,0.0,0.0,0.0,0.420849,0.194238,-9.744273,0.0,0.0,0.0,0.0,0.0,0.0,0.0,0.0,0.0
1637022421556214230,1797,1637022421556032350,,0.0,0.0,0.0,0.0,-1.0,0.0,0.0,0.0,0.0,0.0,0.0,0.0,0.0,0.00174532925199,0.00261799387799,-0.000872664625997,0.0,0.0,0.0,0.0,0.0,0.0,0.0,0.0,0.0,0.097119,0.258984,-9.647154,0.0,0.0,0.0,0.0,0.0,0.0,0.0,0.0,0.0
1637022421576056479,1798,1637022421575952771,,0.0,0.0,0.0,0.0,-1.0,0.0,0.0,0.0,0.0,0.0,0.0,0.0,0.0,0.00261799387799,0.00523598775598,-0.00698131700798,0.0,0.0,0.0,0.0,0.0,0.0,0.0,0.0,0.0,0.161865,0.161865,-9.582408,0.0,0.0,0.0,0.0,0.0,0.0,0.0,0.0,0.0
1637022421596315586,1799,1637022421596085782,,0.0,0.0,0.0,0.0,-1.0,0.0,0.0,0.0,0.0,0.0,0.0,0.0,0.0,0.010471975512,0.00785398163397,0.0,0.0,0.0,0.0,0.0,0.0,0.0,0.0,0.0,0.0,0.194238,0.226611,-9.679527,0.0,0.0,0.0,0.0,0.0,0.0,0.0,0.0,0.0
1637022421616329164,1800,1637022421616148091,,0.0,0.0,0.0,0.0,-1.0,0.0,0.0,0.0,0.0,0.0,0.0,0.0,0.0,0.00872664625997,0.00523598775598,-0.00785398163397,0.0,0.0,0.0,0.0,0.0,0.0,0.0,0.0,0.0,0.129492,0.226611,-9.614781,0.0,0.0,0.0,0.0,0.0,0.0,0.0,0.0,0.0
1637022421636410951,1801,1637022421636059521,,0.0,0.0,0.0,0.0,-1.0,0.0,0.0,0.0,0.0,0.0,0.0,0.0,0.0,-0.011344640138,0.010471975512,-0.00785398163397,0.0,0.0,0.0,0.0,0.0,0.0,0.0,0.0,0.0,0.0,0.226611,-9.679527,0.0,0.0,0.0,0.0,0.0,0.0,0.0,0.0,0.0
1637022421656224014,1802,1637022421656037619,,0.0,0.0,0.0,0.0,-1.0,0.0,0.0,0.0,0.0,0.0,0.0,0.0,0.0,-0.00261799387799,0.00349065850399,-0.00959931088597,0.0,0.0,0.0,0.0,0.0,0.0,0.0,0.0,0.0,0.226611,0.161865,-9.647154,0.0,0.0,0.0,0.0,0.0,0.0,0.0,0.0,0.0
1637022421676679420,1803,1637022421676155470,,0.0,0.0,0.0,0.0,-1.0,0.0,0.0,0.0,0.0,0.0,0.0,0.0,0.0,0.000872664625997,0.00261799387799,-0.00610865238198,0.0,0.0,0.0,0.0,0.0,0.0,0.0,0.0,0.0,0.129492,0.032373,-9.582408,0.0,0.0,0.0,0.0,0.0,0.0,0.0,0.0,0.0
1637022421696867713,1804,1637022421696450025,,0.0,0.0,0.0,0.0,-1.0,0.0,0.0,0.0,0.0,0.0,0.0,0.0,0.0,0.00174532925199,0.00174532925199,-0.00610865238198,0.0,0.0,0.0,0.0,0.0,0.0,0.0,0.0,0.0,0.129492,0.194238,-9.647154,0.0,0.0,0.0,0.0,0.0,0.0,0.0,0.0,0.0
1637022421717450877,1805,1637022421716543020,,0.0,0.0,0.0,0.0,-1.0,0.0,0.0,0.0,0.0,0.0,0.0,0.0,0.0,0.0,0.0,-0.00872664625997,0.0,0.0,0.0,0.0,0.0,0.0,0.0,0.0,0.0,0.161865,0.194238,-9.550035,0.0,0.0,0.0,0.0,0.0,0.0,0.0,0.0,0.0
1637022421737239750,1806,1637022421736434424,,0.0,0.0,0.0,0.0,-1.0,0.0,0.0,0.0,0.0,0.0,0.0,0.0,0.0,-0.000872664625997,0.00436332312999,-0.00174532925199,0.0,0.0,0.0,0.0,0.0,0.0,0.0,0.0,0.0,0.097119,0.226611,-9.582408,0.0,0.0,0.0,0.0,0.0,0.0,0.0,0.0,0.0
1637022421758200063,1807,1637022421757138534,,0.0,0.0,0.0,0.0,-1.0,0.0,0.0,0.0,0.0,0.0,0.0,0.0,0.0,-0.00872664625997,0.00174532925199,-0.00261799387799,0.0,0.0,0.0,0.0,0.0,0.0,0.0,0.0,0.0,0.194238,0.161865,-9.582408,0.0,0.0,0.0,0.0,0.0,0.0,0.0,0.0,0.0
1637022421776915370,1808,1637022421776528793,,0.0,0.0,0.0,0.0,-1.0,0.0,0.0,0.0,0.0,0.0,0.0,0.0,0.0,0.00785398163397,0.00959931088597,-0.00785398163397,0.0,0.0,0.0,0.0,0.0,0.0,0.0,0.0,0.0,0.161865,0.258984,-9.614781,0.0,0.0,0.0,0.0,0.0,0.0,0.0,0.0,0.0
1637022421796673209,1809,1637022421796103755,,0.0,0.0,0.0,0.0,-1.0,0.0,0.0,0.0,0.0,0.0,0.0,0.0,0.0,0.0,0.010471975512,-0.01308996939,0.0,0.0,0.0,0.0,0.0,0.0,0.0,0.0,0.0,0.161865,0.258984,-9.614781,0.0,0.0,0.0,0.0,0.0,0.0,0.0,0.0,0.0
1637022421816236205,1810,1637022421816007682,,0.0,0.0,0.0,0.0,-1.0,0.0,0.0,0.0,0.0,0.0,0.0,0.0,0.0,-0.00785398163397,0.00261799387799,-0.00174532925199,0.0,0.0,0.0,0.0,0.0,0.0,0.0,0.0,0.0,0.194238,0.194238,-9.647154,0.0,0.0,0.0,0.0,0.0,0.0,0.0,0.0,0.0
1637022421836145760,1811,1637022421835993240,,0.0,0.0,0.0,0.0,-1.0,0.0,0.0,0.0,0.0,0.0,0.0,0.0,0.0,-0.00174532925199,0.00436332312999,-0.00174532925199,0.0,0.0,0.0,0.0,0.0,0.0,0.0,0.0,0.0,0.097119,0.0,-9.582408,0.0,0.0,0.0,0.0,0.0,0.0,0.0,0.0,0.0
1637022421856133832,1812,1637022421856028552,,0.0,0.0,0.0,0.0,-1.0,0.0,0.0,0.0,0.0,0.0,0.0,0.0,0.0,0.00174532925199,0.013962634016,-0.000872664625997,0.0,0.0,0.0,0.0,0.0,0.0,0.0,0.0,0.0,0.097119,0.226611,-9.485289,0.0,0.0,0.0,0.0,0.0,0.0,0.0,0.0,0.0
1637022421876067501,1813,1637022421875950783,,0.0,0.0,0.0,0.0,-1.0,0.0,0.0,0.0,0.0,0.0,0.0,0.0,0.0,-0.00523598775598,0.00261799387799,0.00174532925199,0.0,0.0,0.0,0.0,0.0,0.0,0.0,0.0,0.0,0.161865,0.064746,-9.647154,0.0,0.0,0.0,0.0,0.0,0.0,0.0,0.0,0.0
1637022421896307195,1814,1637022421895901836,,0.0,0.0,0.0,0.0,-1.0,0.0,0.0,0.0,0.0,0.0,0.0,0.0,0.0,-0.00698131700798,0.000872664625997,0.0,0.0,0.0,0.0,0.0,0.0,0.0,0.0,0.0,0.0,0.194238,0.194238,-9.614781,0.0,0.0,0.0,0.0,0.0,0.0,0.0,0.0,0.0
1637022421916303594,1815,1637022421915999592,,0.0,0.0,0.0,0.0,-1.0,0.0,0.0,0.0,0.0,0.0,0.0,0.0,0.0,-0.00174532925199,0.00785398163397,-0.00523598775598,0.0,0.0,0.0,0.0,0.0,0.0,0.0,0.0,0.0,0.194238,0.161865,-9.647154,0.0,0.0,0.0,0.0,0.0,0.0,0.0,0.0,0.0
1637022421936010957,1816,1637022421935919548,,0.0,0.0,0.0,0.0,-1.0,0.0,0.0,0.0,0.0,0.0,0.0,0.0,0.0,0.0,0.00872664625997,0.00174532925199,0.0,0.0,0.0,0.0,0.0,0.0,0.0,0.0,0.0,0.129492,0.194238,-9.614781,0.0,0.0,0.0,0.0,0.0,0.0,0.0,0.0,0.0
1637022421956364480,1817,1637022421956179014,,0.0,0.0,0.0,0.0,-1.0,0.0,0.0,0.0,0.0,0.0,0.0,0.0,0.0,0.0,0.010471975512,-0.000872664625997,0.0,0.0,0.0,0.0,0.0,0.0,0.0,0.0,0.0,0.129492,0.194238,-9.679527,0.0,0.0,0.0,0.0,0.0,0.0,0.0,0.0,0.0
1637022421976199806,1818,1637022421976069395,,0.0,0.0,0.0,0.0,-1.0,0.0,0.0,0.0,0.0,0.0,0.0,0.0,0.0,-0.00174532925199,0.00610865238198,-0.00174532925199,0.0,0.0,0.0,0.0,0.0,0.0,0.0,0.0,0.0,0.097119,0.161865,-9.679527,0.0,0.0,0.0,0.0,0.0,0.0,0.0,0.0,0.0
1637022421996632211,1819,1637022421996182541,,0.0,0.0,0.0,0.0,-1.0,0.0,0.0,0.0,0.0,0.0,0.0,0.0,0.0,-0.00174532925199,0.00872664625997,-0.00436332312999,0.0,0.0,0.0,0.0,0.0,0.0,0.0,0.0,0.0,0.161865,0.194238,-9.679527,0.0,0.0,0.0,0.0,0.0,0.0,0.0,0.0,0.0
1637022422018727108,1820,1637022422017004873,,0.0,0.0,0.0,0.0,-1.0,0.0,0.0,0.0,0.0,0.0,0.0,0.0,0.0,0.00174532925199,0.00174532925199,-0.00785398163397,0.0,0.0,0.0,0.0,0.0,0.0,0.0,0.0,0.0,0.129492,0.226611,-9.614781,0.0,0.0,0.0,0.0,0.0,0.0,0.0,0.0,0.0
1637022422041702524,1821,1637022422040282327,,0.0,0.0,0.0,0.0,-1.0,0.0,0.0,0.0,0.0,0.0,0.0,0.0,0.0,-0.000872664625997,-0.00436332312999,-0.00436332312999,0.0,0.0,0.0,0.0,0.0,0.0,0.0,0.0,0.0,0.097119,0.129492,-9.614781,0.0,0.0,0.0,0.0,0.0,0.0,0.0,0.0,0.0
1637022422058083194,1822,1637022422056732608,,0.0,0.0,0.0,0.0,-1.0,0.0,0.0,0.0,0.0,0.0,0.0,0.0,0.0,0.00174532925199,0.00523598775598,-0.0165806278939,0.0,0.0,0.0,0.0,0.0,0.0,0.0,0.0,0.0,0.161865,0.097119,-9.614781,0.0,0.0,0.0,0.0,0.0,0.0,0.0,0.0,0.0
1637022422077541889,1823,1637022422076748406,,0.0,0.0,0.0,0.0,-1.0,0.0,0.0,0.0,0.0,0.0,0.0,0.0,0.0,0.00261799387799,0.0165806278939,-0.00436332312999,0.0,0.0,0.0,0.0,0.0,0.0,0.0,0.0,0.0,0.161865,0.194238,-9.517662,0.0,0.0,0.0,0.0,0.0,0.0,0.0,0.0,0.0
1637022422098334868,1824,1637022422096857901,,0.0,0.0,0.0,0.0,-1.0,0.0,0.0,0.0,0.0,0.0,0.0,0.0,0.0,-0.00174532925199,0.00610865238198,-0.000872664625997,0.0,0.0,0.0,0.0,0.0,0.0,0.0,0.0,0.0,0.291357,0.129492,-9.679527,0.0,0.0,0.0,0.0,0.0,0.0,0.0,0.0,0.0
1637022422116795873,1825,1637022422116081924,,0.0,0.0,0.0,0.0,-1.0,0.0,0.0,0.0,0.0,0.0,0.0,0.0,0.0,-0.00174532925199,0.00174532925199,0.0,0.0,0.0,0.0,0.0,0.0,0.0,0.0,0.0,0.0,0.161865,-0.064746,-9.550035,0.0,0.0,0.0,0.0,0.0,0.0,0.0,0.0,0.0
1637022422136342102,1826,1637022422135961606,,0.0,0.0,0.0,0.0,-1.0,0.0,0.0,0.0,0.0,0.0,0.0,0.0,0.0,0.00523598775598,0.00785398163397,0.00436332312999,0.0,0.0,0.0,0.0,0.0,0.0,0.0,0.0,0.0,0.129492,0.032373,-9.614781,0.0,0.0,0.0,0.0,0.0,0.0,0.0,0.0,0.0
1637022422156299151,1827,1637022422155934062,,0.0,0.0,0.0,0.0,-1.0,0.0,0.0,0.0,0.0,0.0,0.0,0.0,0.0,-0.00261799387799,0.00174532925199,-0.011344640138,0.0,0.0,0.0,0.0,0.0,0.0,0.0,0.0,0.0,-0.064746,0.161865,-9.647154,0.0,0.0,0.0,0.0,0.0,0.0,0.0,0.0,0.0
1637022422176461897,1828,1637022422176154594,,0.0,0.0,0.0,0.0,-1.0,0.0,0.0,0.0,0.0,0.0,0.0,0.0,0.0,0.0,0.011344640138,-0.00698131700798,0.0,0.0,0.0,0.0,0.0,0.0,0.0,0.0,0.0,0.129492,0.32373,-9.582408,0.0,0.0,0.0,0.0,0.0,0.0,0.0,0.0,0.0
1637022422196216172,1829,1637022422195901942,,0.0,0.0,0.0,0.0,-1.0,0.0,0.0,0.0,0.0,0.0,0.0,0.0,0.0,-0.00523598775598,0.00959931088597,-0.014835298642,0.0,0.0,0.0,0.0,0.0,0.0,0.0,0.0,0.0,-0.032373,0.194238,-9.614781,0.0,0.0,0.0,0.0,0.0,0.0,0.0,0.0,0.0
1637022422216316298,1830,1637022422216041325,,0.0,0.0,0.0,0.0,-1.0,0.0,0.0,0.0,0.0,0.0,0.0,0.0,0.0,-0.00349065850399,0.00349065850399,-0.012217304764,0.0,0.0,0.0,0.0,0.0,0.0,0.0,0.0,0.0,0.064746,0.226611,-9.679527,0.0,0.0,0.0,0.0,0.0,0.0,0.0,0.0,0.0
1637022422236104187,1831,1637022422236000965,,0.0,0.0,0.0,0.0,-1.0,0.0,0.0,0.0,0.0,0.0,0.0,0.0,0.0,-0.00436332312999,0.00174532925199,-0.00349065850399,0.0,0.0,0.0,0.0,0.0,0.0,0.0,0.0,0.0,0.161865,0.194238,-9.744273,0.0,0.0,0.0,0.0,0.0,0.0,0.0,0.0,0.0
1637022422256390865,1832,1637022422256231141,,0.0,0.0,0.0,0.0,-1.0,0.0,0.0,0.0,0.0,0.0,0.0,0.0,0.0,-0.00959931088597,0.01308996939,-0.00698131700798,0.0,0.0,0.0,0.0,0.0,0.0,0.0,0.0,0.0,0.129492,0.161865,-9.582408,0.0,0.0,0.0,0.0,0.0,0.0,0.0,0.0,0.0
1637022422276255025,1833,1637022422276046333,,0.0,0.0,0.0,0.0,-1.0,0.0,0.0,0.0,0.0,0.0,0.0,0.0,0.0,-0.00523598775598,-0.00174532925199,-0.010471975512,0.0,0.0,0.0,0.0,0.0,0.0,0.0,0.0,0.0,0.161865,0.161865,-9.614781,0.0,0.0,0.0,0.0,0.0,0.0,0.0,0.0,0.0
1637022422296560166,1834,1637022422296101909,,0.0,0.0,0.0,0.0,-1.0,0.0,0.0,0.0,0.0,0.0,0.0,0.0,0.0,-0.00261799387799,0.00698131700798,-0.00436332312999,0.0,0.0,0.0,0.0,0.0,0.0,0.0,0.0,0.0,0.194238,0.161865,-9.647154,0.0,0.0,0.0,0.0,0.0,0.0,0.0,0.0,0.0
1637022422316336752,1835,1637022422316116867,,0.0,0.0,0.0,0.0,-1.0,0.0,0.0,0.0,0.0,0.0,0.0,0.0,0.0,0.00436332312999,0.00785398163397,-0.00959931088597,0.0,0.0,0.0,0.0,0.0,0.0,0.0,0.0,0.0,0.226611,0.194238,-9.647154,0.0,0.0,0.0,0.0,0.0,0.0,0.0,0.0,0.0
1637022422337334426,1836,1637022422336233619,,0.0,0.0,0.0,0.0,-1.0,0.0,0.0,0.0,0.0,0.0,0.0,0.0,0.0,0.00436332312999,0.00436332312999,-0.00698131700798,0.0,0.0,0.0,0.0,0.0,0.0,0.0,0.0,0.0,0.194238,0.226611,-9.7119,0.0,0.0,0.0,0.0,0.0,0.0,0.0,0.0,0.0
1637022422356252591,1837,1637022422356067038,,0.0,0.0,0.0,0.0,-1.0,0.0,0.0,0.0,0.0,0.0,0.0,0.0,0.0,-0.00610865238198,0.00959931088597,-0.012217304764,0.0,0.0,0.0,0.0,0.0,0.0,0.0,0.0,0.0,0.258984,0.161865,-9.679527,0.0,0.0,0.0,0.0,0.0,0.0,0.0,0.0,0.0
1637022422376438339,1838,1637022422376122858,,0.0,0.0,0.0,0.0,-1.0,0.0,0.0,0.0,0.0,0.0,0.0,0.0,0.0,0.0,0.00785398163397,-0.000872664625997,0.0,0.0,0.0,0.0,0.0,0.0,0.0,0.0,0.0,0.161865,0.161865,-9.647154,0.0,0.0,0.0,0.0,0.0,0.0,0.0,0.0,0.0
1637022422396318160,1839,1637022422396101532,,0.0,0.0,0.0,0.0,-1.0,0.0,0.0,0.0,0.0,0.0,0.0,0.0,0.0,-0.00872664625997,0.00436332312999,0.00174532925199,0.0,0.0,0.0,0.0,0.0,0.0,0.0,0.0,0.0,0.226611,0.129492,-9.647154,0.0,0.0,0.0,0.0,0.0,0.0,0.0,0.0,0.0
1637022422416909716,1840,1637022422416131617,,0.0,0.0,0.0,0.0,-1.0,0.0,0.0,0.0,0.0,0.0,0.0,0.0,0.0,-0.00174532925199,0.0,0.0,0.0,0.0,0.0,0.0,0.0,0.0,0.0,0.0,0.0,0.161865,0.258984,-9.647154,0.0,0.0,0.0,0.0,0.0,0.0,0.0,0.0,0.0
1637022422436323335,1841,1637022422436124595,,0.0,0.0,0.0,0.0,-1.0,0.0,0.0,0.0,0.0,0.0,0.0,0.0,0.0,-0.00174532925199,0.00174532925199,-0.012217304764,0.0,0.0,0.0,0.0,0.0,0.0,0.0,0.0,0.0,0.161865,0.517968,-9.614781,0.0,0.0,0.0,0.0,0.0,0.0,0.0,0.0,0.0
1637022422456494472,1842,1637022422456175555,,0.0,0.0,0.0,0.0,-1.0,0.0,0.0,0.0,0.0,0.0,0.0,0.0,0.0,-0.00523598775598,0.00174532925199,-0.00872664625997,0.0,0.0,0.0,0.0,0.0,0.0,0.0,0.0,0.0,0.388476,0.194238,-9.841392,0.0,0.0,0.0,0.0,0.0,0.0,0.0,0.0,0.0
1637022422476478714,1843,1637022422476213975,,0.0,0.0,0.0,0.0,-1.0,0.0,0.0,0.0,0.0,0.0,0.0,0.0,0.0,0.0,0.010471975512,-0.00785398163397,0.0,0.0,0.0,0.0,0.0,0.0,0.0,0.0,0.0,0.129492,0.161865,-9.647154,0.0,0.0,0.0,0.0,0.0,0.0,0.0,0.0,0.0
1637022422496465646,1844,1637022422496187240,,0.0,0.0,0.0,0.0,-1.0,0.0,0.0,0.0,0.0,0.0,0.0,0.0,0.0,-0.00785398163397,0.00872664625997,-0.010471975512,0.0,0.0,0.0,0.0,0.0,0.0,0.0,0.0,0.0,0.194238,0.194238,-9.614781,0.0,0.0,0.0,0.0,0.0,0.0,0.0,0.0,0.0
1637022422516856158,1845,1637022422516130515,,0.0,0.0,0.0,0.0,-1.0,0.0,0.0,0.0,0.0,0.0,0.0,0.0,0.0,-0.00523598775598,-0.00349065850399,-0.010471975512,0.0,0.0,0.0,0.0,0.0,0.0,0.0,0.0,0.0,-0.032373,0.129492,-9.485289,0.0,0.0,0.0,0.0,0.0,0.0,0.0,0.0,0.0
1637022422537666327,1846,1637022422536866388,,0.0,0.0,0.0,0.0,-1.0,0.0,0.0,0.0,0.0,0.0,0.0,0.0,0.0,0.00261799387799,0.011344640138,-0.013962634016,0.0,0.0,0.0,0.0,0.0,0.0,0.0,0.0,0.0,0.291357,0.226611,-9.614781,0.0,0.0,0.0,0.0,0.0,0.0,0.0,0.0,0.0
1637022422556527754,1847,1637022422556142401,,0.0,0.0,0.0,0.0,-1.0,0.0,0.0,0.0,0.0,0.0,0.0,0.0,0.0,-0.00523598775598,0.00174532925199,-0.00523598775598,0.0,0.0,0.0,0.0,0.0,0.0,0.0,0.0,0.0,0.356103,0.194238,-9.550035,0.0,0.0,0.0,0.0,0.0,0.0,0.0,0.0,0.0
1637022422576364895,1848,1637022422576121415,,0.0,0.0,0.0,0.0,-1.0,0.0,0.0,0.0,0.0,0.0,0.0,0.0,0.0,-0.00349065850399,0.00349065850399,-0.00436332312999,0.0,0.0,0.0,0.0,0.0,0.0,0.0,0.0,0.0,0.129492,0.258984,-9.550035,0.0,0.0,0.0,0.0,0.0,0.0,0.0,0.0,0.0
1637022422596417660,1849,1637022422596130813,,0.0,0.0,0.0,0.0,-1.0,0.0,0.0,0.0,0.0,0.0,0.0,0.0,0.0,-0.00698131700798,0.00785398163397,-0.00523598775598,0.0,0.0,0.0,0.0,0.0,0.0,0.0,0.0,0.0,0.32373,0.161865,-9.614781,0.0,0.0,0.0,0.0,0.0,0.0,0.0,0.0,0.0
1637022422616757797,1850,1637022422616189562,,0.0,0.0,0.0,0.0,-1.0,0.0,0.0,0.0,0.0,0.0,0.0,0.0,0.0,-0.010471975512,0.0,-0.00261799387799,0.0,0.0,0.0,0.0,0.0,0.0,0.0,0.0,0.0,0.129492,0.194238,-9.614781,0.0,0.0,0.0,0.0,0.0,0.0,0.0,0.0,0.0
1637022422636414599,1851,1637022422636137403,,0.0,0.0,0.0,0.0,-1.0,0.0,0.0,0.0,0.0,0.0,0.0,0.0,0.0,-0.00872664625997,-0.000872664625997,-0.00698131700798,0.0,0.0,0.0,0.0,0.0,0.0,0.0,0.0,0.0,0.129492,0.194238,-9.679527,0.0,0.0,0.0,0.0,0.0,0.0,0.0,0.0,0.0
1637022422656348644,1852,1637022422656141470,,0.0,0.0,0.0,0.0,-1.0,0.0,0.0,0.0,0.0,0.0,0.0,0.0,0.0,0.00349065850399,0.00349065850399,-0.00523598775598,0.0,0.0,0.0,0.0,0.0,0.0,0.0,0.0,0.0,0.161865,0.194238,-9.582408,0.0,0.0,0.0,0.0,0.0,0.0,0.0,0.0,0.0
1637022422676680207,1853,1637022422676263227,,0.0,0.0,0.0,0.0,-1.0,0.0,0.0,0.0,0.0,0.0,0.0,0.0,0.0,0.000872664625997,0.00610865238198,-0.00349065850399,0.0,0.0,0.0,0.0,0.0,0.0,0.0,0.0,0.0,0.194238,0.097119,-9.647154,0.0,0.0,0.0,0.0,0.0,0.0,0.0,0.0,0.0
1637022422696540975,1854,1637022422696070982,,0.0,0.0,0.0,0.0,-1.0,0.0,0.0,0.0,0.0,0.0,0.0,0.0,0.0,0.00698131700798,-0.00261799387799,0.00349065850399,0.0,0.0,0.0,0.0,0.0,0.0,0.0,0.0,0.0,0.161865,0.226611,-9.647154,0.0,0.0,0.0,0.0,0.0,0.0,0.0,0.0,0.0
1637022422716615386,1855,1637022422716399707,,0.0,0.0,0.0,0.0,-1.0,0.0,0.0,0.0,0.0,0.0,0.0,0.0,0.0,-0.00349065850399,0.00523598775598,-0.000872664625997,0.0,0.0,0.0,0.0,0.0,0.0,0.0,0.0,0.0,0.129492,0.194238,-9.647154,0.0,0.0,0.0,0.0,0.0,0.0,0.0,0.0,0.0
1637022422736873140,1856,1637022422736215802,,0.0,0.0,0.0,0.0,-1.0,0.0,0.0,0.0,0.0,0.0,0.0,0.0,0.0,-0.00523598775598,0.00698131700798,0.0,0.0,0.0,0.0,0.0,0.0,0.0,0.0,0.0,0.0,0.161865,0.161865,-9.582408,0.0,0.0,0.0,0.0,0.0,0.0,0.0,0.0,0.0
1637022422756656051,1857,1637022422756297310,,0.0,0.0,0.0,0.0,-1.0,0.0,0.0,0.0,0.0,0.0,0.0,0.0,0.0,-0.00523598775598,0.00174532925199,-0.0253072741539,0.0,0.0,0.0,0.0,0.0,0.0,0.0,0.0,0.0,0.161865,0.32373,-9.582408,0.0,0.0,0.0,0.0,0.0,0.0,0.0,0.0,0.0
1637022422776477465,1858,1637022422776200325,,0.0,0.0,0.0,0.0,-1.0,0.0,0.0,0.0,0.0,0.0,0.0,0.0,0.0,-0.00610865238198,0.00610865238198,-0.000872664625997,0.0,0.0,0.0,0.0,0.0,0.0,0.0,0.0,0.0,0.194238,0.161865,-9.614781,0.0,0.0,0.0,0.0,0.0,0.0,0.0,0.0,0.0
1637022422796512846,1859,1637022422796091984,,0.0,0.0,0.0,0.0,-1.0,0.0,0.0,0.0,0.0,0.0,0.0,0.0,0.0,-0.000872664625997,0.00349065850399,-0.014835298642,0.0,0.0,0.0,0.0,0.0,0.0,0.0,0.0,0.0,0.161865,0.258984,-9.614781,0.0,0.0,0.0,0.0,0.0,0.0,0.0,0.0,0.0
1637022422816718950,1860,1637022422816475171,,0.0,0.0,0.0,0.0,-1.0,0.0,0.0,0.0,0.0,0.0,0.0,0.0,0.0,0.0,0.00436332312999,-0.00436332312999,0.0,0.0,0.0,0.0,0.0,0.0,0.0,0.0,0.0,0.129492,0.161865,-9.420543,0.0,0.0,0.0,0.0,0.0,0.0,0.0,0.0,0.0
1637022422836777904,1861,1637022422836239636,,0.0,0.0,0.0,0.0,-1.0,0.0,0.0,0.0,0.0,0.0,0.0,0.0,0.0,-0.00523598775598,0.00436332312999,-0.0174532925199,0.0,0.0,0.0,0.0,0.0,0.0,0.0,0.0,0.0,0.129492,0.161865,-9.647154,0.0,0.0,0.0,0.0,0.0,0.0,0.0,0.0,0.0
1637022422856571157,1862,1637022422856322765,,0.0,0.0,0.0,0.0,-1.0,0.0,0.0,0.0,0.0,0.0,0.0,0.0,0.0,-0.00174532925199,0.00349065850399,-0.00785398163397,0.0,0.0,0.0,0.0,0.0,0.0,0.0,0.0,0.0,0.129492,0.194238,-9.7119,0.0,0.0,0.0,0.0,0.0,0.0,0.0,0.0,0.0
1637022422876409297,1863,1637022422876183310,,0.0,0.0,0.0,0.0,-1.0,0.0,0.0,0.0,0.0,0.0,0.0,0.0,0.0,-0.00261799387799,0.00174532925199,-0.00959931088597,0.0,0.0,0.0,0.0,0.0,0.0,0.0,0.0,0.0,0.129492,0.226611,-9.582408,0.0,0.0,0.0,0.0,0.0,0.0,0.0,0.0,0.0
1637022422896351467,1864,1637022422896116652,,0.0,0.0,0.0,0.0,-1.0,0.0,0.0,0.0,0.0,0.0,0.0,0.0,0.0,-0.00261799387799,0.00523598775598,-0.00872664625997,0.0,0.0,0.0,0.0,0.0,0.0,0.0,0.0,0.0,0.064746,0.226611,-9.614781,0.0,0.0,0.0,0.0,0.0,0.0,0.0,0.0,0.0
1637022422916758232,1865,1637022422916141850,,0.0,0.0,0.0,0.0,-1.0,0.0,0.0,0.0,0.0,0.0,0.0,0.0,0.0,-0.010471975512,0.013962634016,-0.0183259571459,0.0,0.0,0.0,0.0,0.0,0.0,0.0,0.0,0.0,0.194238,0.226611,-9.614781,0.0,0.0,0.0,0.0,0.0,0.0,0.0,0.0,0.0
1637022422936578271,1866,1637022422936136667,,0.0,0.0,0.0,0.0,-1.0,0.0,0.0,0.0,0.0,0.0,0.0,0.0,0.0,0.00261799387799,0.0,-0.00349065850399,0.0,0.0,0.0,0.0,0.0,0.0,0.0,0.0,0.0,0.129492,0.161865,-9.550035,0.0,0.0,0.0,0.0,0.0,0.0,0.0,0.0,0.0
1637022422956251826,1867,1637022422956079933,,0.0,0.0,0.0,0.0,-1.0,0.0,0.0,0.0,0.0,0.0,0.0,0.0,0.0,0.0,0.00261799387799,-0.00610865238198,0.0,0.0,0.0,0.0,0.0,0.0,0.0,0.0,0.0,0.194238,0.161865,-9.614781,0.0,0.0,0.0,0.0,0.0,0.0,0.0,0.0,0.0
1637022422976522247,1868,1637022422976198952,,0.0,0.0,0.0,0.0,-1.0,0.0,0.0,0.0,0.0,0.0,0.0,0.0,0.0,0.00436332312999,0.000872664625997,0.00174532925199,0.0,0.0,0.0,0.0,0.0,0.0,0.0,0.0,0.0,0.161865,0.097119,-9.647154,0.0,0.0,0.0,0.0,0.0,0.0,0.0,0.0,0.0
1637022422996428010,1869,1637022422996100694,,0.0,0.0,0.0,0.0,-1.0,0.0,0.0,0.0,0.0,0.0,0.0,0.0,0.0,-0.00610865238198,0.000872664625997,-0.00174532925199,0.0,0.0,0.0,0.0,0.0,0.0,0.0,0.0,0.0,0.129492,0.161865,-9.582408,0.0,0.0,0.0,0.0,0.0,0.0,0.0,0.0,0.0
1637022423016711986,1870,1637022423016172557,,0.0,0.0,0.0,0.0,-1.0,0.0,0.0,0.0,0.0,0.0,0.0,0.0,0.0,-0.00261799387799,-0.00436332312999,-0.00261799387799,0.0,0.0,0.0,0.0,0.0,0.0,0.0,0.0,0.0,0.194238,0.129492,-9.7119,0.0,0.0,0.0,0.0,0.0,0.0,0.0,0.0,0.0
1637022423036335443,1871,1637022423036141885,,0.0,0.0,0.0,0.0,-1.0,0.0,0.0,0.0,0.0,0.0,0.0,0.0,0.0,-0.00785398163397,0.00698131700798,-0.00174532925199,0.0,0.0,0.0,0.0,0.0,0.0,0.0,0.0,0.0,0.161865,0.226611,-9.647154,0.0,0.0,0.0,0.0,0.0,0.0,0.0,0.0,0.0
1637022423056253951,1872,1637022423056058789,,0.0,0.0,0.0,0.0,-1.0,0.0,0.0,0.0,0.0,0.0,0.0,0.0,0.0,-0.00785398163397,0.000872664625997,-0.00959931088597,0.0,0.0,0.0,0.0,0.0,0.0,0.0,0.0,0.0,0.129492,0.161865,-9.614781,0.0,0.0,0.0,0.0,0.0,0.0,0.0,0.0,0.0
1637022423076171049,1873,1637022423076034236,,0.0,0.0,0.0,0.0,-1.0,0.0,0.0,0.0,0.0,0.0,0.0,0.0,0.0,0.000872664625997,0.00959931088597,-0.00349065850399,0.0,0.0,0.0,0.0,0.0,0.0,0.0,0.0,0.0,0.032373,0.129492,-9.647154,0.0,0.0,0.0,0.0,0.0,0.0,0.0,0.0,0.0
1637022423096117608,1874,1637022423095977455,,0.0,0.0,0.0,0.0,-1.0,0.0,0.0,0.0,0.0,0.0,0.0,0.0,0.0,0.0,0.0,-0.00436332312999,0.0,0.0,0.0,0.0,0.0,0.0,0.0,0.0,0.0,0.161865,0.194238,-9.614781,0.0,0.0,0.0,0.0,0.0,0.0,0.0,0.0,0.0
1637022423116675999,1875,1637022423116229725,,0.0,0.0,0.0,0.0,-1.0,0.0,0.0,0.0,0.0,0.0,0.0,0.0,0.0,-0.000872664625997,0.00523598775598,-0.012217304764,0.0,0.0,0.0,0.0,0.0,0.0,0.0,0.0,0.0,0.064746,0.194238,-9.679527,0.0,0.0,0.0,0.0,0.0,0.0,0.0,0.0,0.0
1637022423136211580,1876,1637022423135989881,,0.0,0.0,0.0,0.0,-1.0,0.0,0.0,0.0,0.0,0.0,0.0,0.0,0.0,-0.00261799387799,0.00523598775598,-0.00174532925199,0.0,0.0,0.0,0.0,0.0,0.0,0.0,0.0,0.0,0.097119,0.161865,-9.614781,0.0,0.0,0.0,0.0,0.0,0.0,0.0,0.0,0.0
1637022423156581950,1877,1637022423156193372,,0.0,0.0,0.0,0.0,-1.0,0.0,0.0,0.0,0.0,0.0,0.0,0.0,0.0,0.0,-0.00436332312999,-0.00436332312999,0.0,0.0,0.0,0.0,0.0,0.0,0.0,0.0,0.0,0.032373,0.161865,-9.614781,0.0,0.0,0.0,0.0,0.0,0.0,0.0,0.0,0.0
1637022423176249043,1878,1637022423176109253,,0.0,0.0,0.0,0.0,-1.0,0.0,0.0,0.0,0.0,0.0,0.0,0.0,0.0,0.0,0.00610865238198,-0.00959931088597,0.0,0.0,0.0,0.0,0.0,0.0,0.0,0.0,0.0,0.161865,0.161865,-9.679527,0.0,0.0,0.0,0.0,0.0,0.0,0.0,0.0,0.0
1637022423196447530,1879,1637022423196202367,,0.0,0.0,0.0,0.0,-1.0,0.0,0.0,0.0,0.0,0.0,0.0,0.0,0.0,-0.00436332312999,0.000872664625997,-0.00959931088597,0.0,0.0,0.0,0.0,0.0,0.0,0.0,0.0,0.0,0.161865,0.258984,-9.550035,0.0,0.0,0.0,0.0,0.0,0.0,0.0,0.0,0.0
1637022423216868338,1880,1637022423216668237,,0.0,0.0,0.0,0.0,-1.0,0.0,0.0,0.0,0.0,0.0,0.0,0.0,0.0,-0.00523598775598,0.0,-0.011344640138,0.0,0.0,0.0,0.0,0.0,0.0,0.0,0.0,0.0,0.097119,0.226611,-9.582408,0.0,0.0,0.0,0.0,0.0,0.0,0.0,0.0,0.0
1637022423236753769,1881,1637022423236296558,,0.0,0.0,0.0,0.0,-1.0,0.0,0.0,0.0,0.0,0.0,0.0,0.0,0.0,0.000872664625997,-0.00261799387799,0.000872664625997,0.0,0.0,0.0,0.0,0.0,0.0,0.0,0.0,0.0,0.161865,0.258984,-9.647154,0.0,0.0,0.0,0.0,0.0,0.0,0.0,0.0,0.0
1637022423257148614,1882,1637022423256919015,,0.0,0.0,0.0,0.0,-1.0,0.0,0.0,0.0,0.0,0.0,0.0,0.0,0.0,-0.00349065850399,0.00349065850399,-0.00523598775598,0.0,0.0,0.0,0.0,0.0,0.0,0.0,0.0,0.0,0.226611,0.194238,-9.744273,0.0,0.0,0.0,0.0,0.0,0.0,0.0,0.0,0.0
1637022423276576999,1883,1637022423276183894,,0.0,0.0,0.0,0.0,-1.0,0.0,0.0,0.0,0.0,0.0,0.0,0.0,0.0,-0.00523598775598,0.00436332312999,0.0,0.0,0.0,0.0,0.0,0.0,0.0,0.0,0.0,0.0,0.161865,0.161865,-9.647154,0.0,0.0,0.0,0.0,0.0,0.0,0.0,0.0,0.0
1637022423296837116,1884,1637022423296277877,,0.0,0.0,0.0,0.0,-1.0,0.0,0.0,0.0,0.0,0.0,0.0,0.0,0.0,-0.000872664625997,0.00436332312999,-0.00523598775598,0.0,0.0,0.0,0.0,0.0,0.0,0.0,0.0,0.0,0.129492,0.226611,-9.582408,0.0,0.0,0.0,0.0,0.0,0.0,0.0,0.0,0.0
1637022423316736176,1885,1637022423316312622,,0.0,0.0,0.0,0.0,-1.0,0.0,0.0,0.0,0.0,0.0,0.0,0.0,0.0,-0.00349065850399,-0.00174532925199,0.0,0.0,0.0,0.0,0.0,0.0,0.0,0.0,0.0,0.0,0.194238,0.194238,-9.582408,0.0,0.0,0.0,0.0,0.0,0.0,0.0,0.0,0.0
1637022423336777927,1886,1637022423336222312,,0.0,0.0,0.0,0.0,-1.0,0.0,0.0,0.0,0.0,0.0,0.0,0.0,0.0,0.00349065850399,0.010471975512,-0.011344640138,0.0,0.0,0.0,0.0,0.0,0.0,0.0,0.0,0.0,0.194238,0.161865,-9.614781,0.0,0.0,0.0,0.0,0.0,0.0,0.0,0.0,0.0
1637022423356625051,1887,1637022423356176659,,0.0,0.0,0.0,0.0,-1.0,0.0,0.0,0.0,0.0,0.0,0.0,0.0,0.0,-0.00349065850399,0.00523598775598,0.00349065850399,0.0,0.0,0.0,0.0,0.0,0.0,0.0,0.0,0.0,0.161865,0.097119,-9.7119,0.0,0.0,0.0,0.0,0.0,0.0,0.0,0.0,0.0
1637022423376321334,1888,1637022423376074598,,0.0,0.0,0.0,0.0,-1.0,0.0,0.0,0.0,0.0,0.0,0.0,0.0,0.0,-0.00436332312999,0.00174532925199,-0.00698131700798,0.0,0.0,0.0,0.0,0.0,0.0,0.0,0.0,0.0,0.161865,0.161865,-9.614781,0.0,0.0,0.0,0.0,0.0,0.0,0.0,0.0,0.0
1637022423396409195,1889,1637022423396083038,,0.0,0.0,0.0,0.0,-1.0,0.0,0.0,0.0,0.0,0.0,0.0,0.0,0.0,0.00436332312999,-0.00872664625997,-0.014835298642,0.0,0.0,0.0,0.0,0.0,0.0,0.0,0.0,0.0,0.161865,0.129492,-9.614781,0.0,0.0,0.0,0.0,0.0,0.0,0.0,0.0,0.0
1637022423417168055,1890,1637022423416909250,,0.0,0.0,0.0,0.0,-1.0,0.0,0.0,0.0,0.0,0.0,0.0,0.0,0.0,0.00523598775598,0.00785398163397,-0.012217304764,0.0,0.0,0.0,0.0,0.0,0.0,0.0,0.0,0.0,0.161865,0.258984,-9.647154,0.0,0.0,0.0,0.0,0.0,0.0,0.0,0.0,0.0
1637022423436582431,1891,1637022423436121124,,0.0,0.0,0.0,0.0,-1.0,0.0,0.0,0.0,0.0,0.0,0.0,0.0,0.0,0.00872664625997,0.00436332312999,-0.00959931088597,0.0,0.0,0.0,0.0,0.0,0.0,0.0,0.0,0.0,0.161865,0.194238,-9.841392,0.0,0.0,0.0,0.0,0.0,0.0,0.0,0.0,0.0
1637022423456441316,1892,1637022423456149509,,0.0,0.0,0.0,0.0,-1.0,0.0,0.0,0.0,0.0,0.0,0.0,0.0,0.0,-0.00523598775598,0.0165806278939,0.0,0.0,0.0,0.0,0.0,0.0,0.0,0.0,0.0,0.0,0.485595,0.064746,-9.906138,0.0,0.0,0.0,0.0,0.0,0.0,0.0,0.0,0.0
1637022423476263279,1893,1637022423476064899,,0.0,0.0,0.0,0.0,-1.0,0.0,0.0,0.0,0.0,0.0,0.0,0.0,0.0,-0.00523598775598,0.00785398163397,-0.00523598775598,0.0,0.0,0.0,0.0,0.0,0.0,0.0,0.0,0.0,0.32373,0.356103,-9.744273,0.0,0.0,0.0,0.0,0.0,0.0,0.0,0.0,0.0
1637022423496410435,1894,1637022423496099533,,0.0,0.0,0.0,0.0,-1.0,0.0,0.0,0.0,0.0,0.0,0.0,0.0,0.0,0.0,0.00698131700798,0.00436332312999,0.0,0.0,0.0,0.0,0.0,0.0,0.0,0.0,0.0,0.258984,0.161865,-9.38817,0.0,0.0,0.0,0.0,0.0,0.0,0.0,0.0,0.0
1637022423516650609,1895,1637022423516176913,,0.0,0.0,0.0,0.0,-1.0,0.0,0.0,0.0,0.0,0.0,0.0,0.0,0.0,0.00261799387799,0.00610865238198,0.00436332312999,0.0,0.0,0.0,0.0,0.0,0.0,0.0,0.0,0.0,0.097119,0.0,-9.744273,0.0,0.0,0.0,0.0,0.0,0.0,0.0,0.0,0.0
1637022423536552074,1896,1637022423536247586,,0.0,0.0,0.0,0.0,-1.0,0.0,0.0,0.0,0.0,0.0,0.0,0.0,0.0,0.011344640138,0.00698131700798,0.0183259571459,0.0,0.0,0.0,0.0,0.0,0.0,0.0,0.0,0.0,0.0,0.161865,-9.614781,0.0,0.0,0.0,0.0,0.0,0.0,0.0,0.0,0.0
1637022423556388031,1897,1637022423556119676,,0.0,0.0,0.0,0.0,-1.0,0.0,0.0,0.0,0.0,0.0,0.0,0.0,0.0,0.000872664625997,0.014835298642,0.0165806278939,0.0,0.0,0.0,0.0,0.0,0.0,0.0,0.0,0.0,0.097119,0.258984,-9.647154,0.0,0.0,0.0,0.0,0.0,0.0,0.0,0.0,0.0
1637022423576450987,1898,1637022423576202678,,0.0,0.0,0.0,0.0,-1.0,0.0,0.0,0.0,0.0,0.0,0.0,0.0,0.0,-0.00261799387799,-0.00174532925199,0.0479965544298,0.0,0.0,0.0,0.0,0.0,0.0,0.0,0.0,0.0,-0.032373,0.388476,-9.550035,0.0,0.0,0.0,0.0,0.0,0.0,0.0,0.0,0.0
1637022423596580540,1899,1637022423596199824,,0.0,0.0,0.0,0.0,-1.0,0.0,0.0,0.0,0.0,0.0,0.0,0.0,0.0,-0.00959931088597,0.00610865238198,0.0706858347058,0.0,0.0,0.0,0.0,0.0,0.0,0.0,0.0,0.0,0.032373,0.32373,-9.614781,0.0,0.0,0.0,0.0,0.0,0.0,0.0,0.0,0.0
1637022423618367015,1900,1637022423616987103,,0.0,0.0,0.0,0.0,-1.0,0.0,0.0,0.0,0.0,0.0,0.0,0.0,0.0,0.0392699081699,-0.00698131700798,0.181514242207,0.0,0.0,0.0,0.0,0.0,0.0,0.0,0.0,0.0,-0.32373,1.165428,-9.452916,0.0,0.0,0.0,0.0,0.0,0.0,0.0,0.0,0.0
1637022423637551431,1901,1637022423637310281,,0.0,0.0,0.0,0.0,-1.0,0.0,0.0,0.0,0.0,0.0,0.0,0.0,0.0,-0.00174532925199,0.0383972435439,0.578576647036,0.0,0.0,0.0,0.0,0.0,0.0,0.0,0.0,0.0,-0.388476,1.133055,-8.514099,0.0,0.0,0.0,0.0,0.0,0.0,0.0,0.0,0.0
1637022423656592617,1902,1637022423656179920,,0.0,0.0,0.0,0.0,-1.0,0.0,0.0,0.0,0.0,0.0,0.0,0.0,0.0,-0.0270526034059,-0.00174532925199,0.781034840267,0.0,0.0,0.0,0.0,0.0,0.0,0.0,0.0,0.0,-0.097119,0.161865,-9.420543,0.0,0.0,0.0,0.0,0.0,0.0,0.0,0.0,0.0
1637022423676738359,1903,1637022423676265414,,0.0,0.0,0.0,0.0,-1.0,0.0,0.0,0.0,0.0,0.0,0.0,0.0,0.0,0.0235619449019,-0.0305432619099,0.702495023928,0.0,0.0,0.0,0.0,0.0,0.0,0.0,0.0,0.0,0.388476,-0.226611,-10.650717,0.0,0.0,0.0,0.0,0.0,0.0,0.0,0.0,0.0
1637022423696579344,1904,1637022423696148493,,0.0,0.0,0.0,0.0,-1.0,0.0,0.0,0.0,0.0,0.0,0.0,0.0,0.0,0.00436332312999,0.0279252680319,0.787143492649,0.0,0.0,0.0,0.0,0.0,0.0,0.0,0.0,0.0,0.032373,0.841698,-9.582408,0.0,0.0,0.0,0.0,0.0,0.0,0.0,0.0,0.0
1637022423716888488,1905,1637022423716598009,,0.0,0.0,0.0,0.0,-1.0,0.0,0.0,0.0,0.0,0.0,0.0,0.0,0.0,0.0366519142919,0.0261799387799,0.776671517137,0.0,0.0,0.0,0.0,0.0,0.0,0.0,0.0,0.0,-0.841698,0.744579,-8.675964,0.0,0.0,0.0,0.0,0.0,0.0,0.0,0.0,0.0
1637022423737120990,1906,1637022423736546298,,0.0,0.0,0.0,0.0,-1.0,0.0,0.0,0.0,0.0,0.0,0.0,0.0,0.0,-0.00872664625997,0.012217304764,0.821177413063,0.0,0.0,0.0,0.0,0.0,0.0,0.0,0.0,0.0,0.712206,0.517968,-10.294614,0.0,0.0,0.0,0.0,0.0,0.0,0.0,0.0,0.0
1637022423756351373,1907,1637022423756154175,,0.0,0.0,0.0,0.0,-1.0,0.0,0.0,0.0,0.0,0.0,0.0,0.0,0.0,0.013962634016,0.014835298642,0.929387826687,0.0,0.0,0.0,0.0,0.0,0.0,0.0,0.0,0.0,0.550341,-0.32373,-9.841392,0.0,0.0,0.0,0.0,0.0,0.0,0.0,0.0,0.0
1637022423776210177,1908,1637022423776070625,,0.0,0.0,0.0,0.0,-1.0,0.0,0.0,0.0,0.0,0.0,0.0,0.0,0.0,-0.000872664625997,0.0165806278939,0.862192650485,0.0,0.0,0.0,0.0,0.0,0.0,0.0,0.0,0.0,0.388476,-0.32373,-9.193932,0.0,0.0,0.0,0.0,0.0,0.0,0.0,0.0,0.0
1637022423796286546,1909,1637022423796021991,,0.0,0.0,0.0,0.0,-1.0,0.0,0.0,0.0,0.0,0.0,0.0,0.0,0.0,0.00959931088597,-0.00261799387799,0.751364242984,0.0,0.0,0.0,0.0,0.0,0.0,0.0,0.0,0.0,-0.161865,0.194238,-9.517662,0.0,0.0,0.0,0.0,0.0,0.0,0.0,0.0,0.0
1637022423816198469,1910,1637022423816077829,,0.0,0.0,0.0,0.0,-1.0,0.0,0.0,0.0,0.0,0.0,0.0,0.0,0.0,0.0,-0.00174532925199,0.786270828023,0.0,0.0,0.0,0.0,0.0,0.0,0.0,0.0,0.0,-0.032373,0.129492,-9.258678,0.0,0.0,0.0,0.0,0.0,0.0,0.0,0.0,0.0
1637022423836131509,1911,1637022423835993577,,0.0,0.0,0.0,0.0,-1.0,0.0,0.0,0.0,0.0,0.0,0.0,0.0,0.0,-0.00261799387799,-0.0200712863979,0.877027949127,0.0,0.0,0.0,0.0,0.0,0.0,0.0,0.0,0.0,0.097119,0.356103,-9.744273,0.0,0.0,0.0,0.0,0.0,0.0,0.0,0.0,0.0
1637022423856184211,1912,1637022423856050034,,0.0,0.0,0.0,0.0,-1.0,0.0,0.0,0.0,0.0,0.0,0.0,0.0,0.0,0.0191986217719,0.0331612557879,1.0035643199,0.0,0.0,0.0,0.0,0.0,0.0,0.0,0.0,0.0,-0.064746,0.744579,-9.485289,0.0,0.0,0.0,0.0,0.0,0.0,0.0,0.0,0.0
1637022423876254062,1913,1637022423876053502,,0.0,0.0,0.0,0.0,-1.0,0.0,0.0,0.0,0.0,0.0,0.0,0.0,0.0,0.011344640138,-0.00523598775598,0.900589894029,0.0,0.0,0.0,0.0,0.0,0.0,0.0,0.0,0.0,0.0,-0.161865,-9.226305,0.0,0.0,0.0,0.0,0.0,0.0,0.0,0.0,0.0
1637022423896865603,1914,1637022423896389830,,0.0,0.0,0.0,0.0,-1.0,0.0,0.0,0.0,0.0,0.0,0.0,0.0,0.0,-0.00174532925199,-0.000872664625997,0.776671517137,0.0,0.0,0.0,0.0,0.0,0.0,0.0,0.0,0.0,0.388476,0.032373,-10.391733,0.0,0.0,0.0,0.0,0.0,0.0,0.0,0.0,0.0
1637022423917328089,1915,1637022423916372183,,0.0,0.0,0.0,0.0,-1.0,0.0,0.0,0.0,0.0,0.0,0.0,0.0,0.0,-0.011344640138,0.012217304764,0.820304748437,0.0,0.0,0.0,0.0,0.0,0.0,0.0,0.0,0.0,-0.226611,0.032373,-9.129186,0.0,0.0,0.0,0.0,0.0,0.0,0.0,0.0,0.0
1637022423936565973,1916,1637022423936219043,,0.0,0.0,0.0,0.0,-1.0,0.0,0.0,0.0,0.0,0.0,0.0,0.0,0.0,0.0165806278939,-0.000872664625997,0.932005820565,0.0,0.0,0.0,0.0,0.0,0.0,0.0,0.0,0.0,-0.064746,0.194238,-9.614781,0.0,0.0,0.0,0.0,0.0,0.0,0.0,0.0,0.0
1637022423957689183,1917,1637022423956279333,,0.0,0.0,0.0,0.0,-1.0,0.0,0.0,0.0,0.0,0.0,0.0,0.0,0.0,0.0287979326579,0.00959931088597,1.01229096616,0.0,0.0,0.0,0.0,0.0,0.0,0.0,0.0,0.0,0.291357,0.485595,-10.197495,0.0,0.0,0.0,0.0,0.0,0.0,0.0,0.0,0.0
1637022423976499915,1918,1637022423976248927,,0.0,0.0,0.0,0.0,-1.0,0.0,0.0,0.0,0.0,0.0,0.0,0.0,0.0,0.010471975512,-0.00698131700798,0.897099235525,0.0,0.0,0.0,0.0,0.0,0.0,0.0,0.0,0.0,0.064746,-0.388476,-9.744273,0.0,0.0,0.0,0.0,0.0,0.0,0.0,0.0,0.0
1637022423996725373,1919,1637022423996215480,,0.0,0.0,0.0,0.0,-1.0,0.0,0.0,0.0,0.0,0.0,0.0,0.0,0.0,0.010471975512,0.00872664625997,0.845612022591,0.0,0.0,0.0,0.0,0.0,0.0,0.0,0.0,0.0,0.291357,0.194238,-9.452916,0.0,0.0,0.0,0.0,0.0,0.0,0.0,0.0,0.0
1637022424016682152,1920,1637022424016272441,,0.0,0.0,0.0,0.0,-1.0,0.0,0.0,0.0,0.0,0.0,0.0,0.0,0.0,-0.0218166156499,0.013962634016,0.910189204915,0.0,0.0,0.0,0.0,0.0,0.0,0.0,0.0,0.0,0.0,0.517968,-9.517662,0.0,0.0,0.0,0.0,0.0,0.0,0.0,0.0,0.0
1637022424036470827,1921,1637022424036177259,,0.0,0.0,0.0,0.0,-1.0,0.0,0.0,0.0,0.0,0.0,0.0,0.0,0.0,0.012217304764,-0.00610865238198,0.909316540289,0.0,0.0,0.0,0.0,0.0,0.0,0.0,0.0,0.0,0.129492,0.129492,-9.355797,0.0,0.0,0.0,0.0,0.0,0.0,0.0,0.0,0.0
1637022424056653006,1922,1637022424056289965,,0.0,0.0,0.0,0.0,-1.0,0.0,0.0,0.0,0.0,0.0,0.0,0.0,0.0,-0.000872664625997,0.000872664625997,1.04283422807,0.0,0.0,0.0,0.0,0.0,0.0,0.0,0.0,0.0,0.194238,0.453222,-10.165122,0.0,0.0,0.0,0.0,0.0,0.0,0.0,0.0,0.0
1637022424076903172,1923,1637022424076500672,,0.0,0.0,0.0,0.0,-1.0,0.0,0.0,0.0,0.0,0.0,0.0,0.0,0.0,0.012217304764,0.0270526034059,1.01752695391,0.0,0.0,0.0,0.0,0.0,0.0,0.0,0.0,0.0,0.097119,0.0,-9.841392,0.0,0.0,0.0,0.0,0.0,0.0,0.0,0.0,0.0
1637022424096657222,1924,1637022424096228875,,0.0,0.0,0.0,0.0,-1.0,0.0,0.0,0.0,0.0,0.0,0.0,0.0,0.0,-0.0453785605519,-0.00610865238198,0.912807198793,0.0,0.0,0.0,0.0,0.0,0.0,0.0,0.0,0.0,0.129492,0.388476,-9.420543,0.0,0.0,0.0,0.0,0.0,0.0,0.0,0.0,0.0
1637022424118052244,1925,1637022424117093377,,0.0,0.0,0.0,0.0,-1.0,0.0,0.0,0.0,0.0,0.0,0.0,0.0,0.0,0.0200712863979,0.0331612557879,0.961676417849,0.0,0.0,0.0,0.0,0.0,0.0,0.0,0.0,0.0,0.32373,-0.226611,-9.420543,0.0,0.0,0.0,0.0,0.0,0.0,0.0,0.0,0.0
1637022424137221900,1926,1637022424136439391,,0.0,0.0,0.0,0.0,-1.0,0.0,0.0,0.0,0.0,0.0,0.0,0.0,0.0,0.00261799387799,0.00610865238198,1.06116018521,0.0,0.0,0.0,0.0,0.0,0.0,0.0,0.0,0.0,-0.194238,0.356103,-9.938511,0.0,0.0,0.0,0.0,0.0,0.0,0.0,0.0,0.0
1637022424156805564,1927,1637022424156282656,,0.0,0.0,0.0,0.0,-1.0,0.0,0.0,0.0,0.0,0.0,0.0,0.0,0.0,0.0183259571459,-0.00523598775598,0.980875039621,0.0,0.0,0.0,0.0,0.0,0.0,0.0,0.0,0.0,0.356103,0.032373,-10.424106,0.0,0.0,0.0,0.0,0.0,0.0,0.0,0.0,0.0
1637022424177107513,1928,1637022424176136227,,0.0,0.0,0.0,0.0,-1.0,0.0,0.0,0.0,0.0,0.0,0.0,0.0,0.0,0.01308996939,0.014835298642,0.867428638241,0.0,0.0,0.0,0.0,0.0,0.0,0.0,0.0,0.0,0.517968,-0.032373,-9.647154,0.0,0.0,0.0,0.0,0.0,0.0,0.0,0.0,0.0
1637022424196548253,1929,1637022424196159890,,0.0,0.0,0.0,0.0,-1.0,0.0,0.0,0.0,0.0,0.0,0.0,0.0,0.0,-0.0488692190558,-0.011344640138,0.919788515801,0.0,0.0,0.0,0.0,0.0,0.0,0.0,0.0,0.0,-0.097119,0.097119,-9.032067,0.0,0.0,0.0,0.0,0.0,0.0,0.0,0.0,0.0
1637022424216583833,1930,1637022424216157459,,0.0,0.0,0.0,0.0,-1.0,0.0,0.0,0.0,0.0,0.0,0.0,0.0,0.0,0.0366519142919,-0.00174532925199,0.974766387239,0.0,0.0,0.0,0.0,0.0,0.0,0.0,0.0,0.0,-0.194238,0.291357,-9.517662,0.0,0.0,0.0,0.0,0.0,0.0,0.0,0.0,0.0
1637022424236569196,1931,1637022424236101681,,0.0,0.0,0.0,0.0,-1.0,0.0,0.0,0.0,0.0,0.0,0.0,0.0,0.0,0.010471975512,0.00261799387799,1.06814150222,0.0,0.0,0.0,0.0,0.0,0.0,0.0,0.0,0.0,0.582714,-0.226611,-10.03563,0.0,0.0,0.0,0.0,0.0,0.0,0.0,0.0,0.0
1637022424256578167,1932,1637022424256262949,,0.0,0.0,0.0,0.0,-1.0,0.0,0.0,0.0,0.0,0.0,0.0,0.0,0.0,0.010471975512,-0.0357792496659,0.986983692003,0.0,0.0,0.0,0.0,0.0,0.0,0.0,0.0,0.0,0.258984,0.129492,-9.291051,0.0,0.0,0.0,0.0,0.0,0.0,0.0,0.0,0.0
1637022424276391070,1933,1637022424276084660,,0.0,0.0,0.0,0.0,-1.0,0.0,0.0,0.0,0.0,0.0,0.0,0.0,0.0,-0.0296705972839,0.0235619449019,0.911061869541,0.0,0.0,0.0,0.0,0.0,0.0,0.0,0.0,0.0,0.226611,0.161865,-9.582408,0.0,0.0,0.0,0.0,0.0,0.0,0.0,0.0,0.0
1637022424296517837,1934,1637022424296180675,,0.0,0.0,0.0,0.0,-1.0,0.0,0.0,0.0,0.0,0.0,0.0,0.0,0.0,-0.0191986217719,-0.0174532925199,0.966912405605,0.0,0.0,0.0,0.0,0.0,0.0,0.0,0.0,0.0,0.226611,-0.194238,-9.517662,0.0,0.0,0.0,0.0,0.0,0.0,0.0,0.0,0.0
1637022424316718023,1935,1637022424316167778,,0.0,0.0,0.0,0.0,-1.0,0.0,0.0,0.0,0.0,0.0,0.0,0.0,0.0,0.00698131700798,0.00785398163397,0.992219679759,0.0,0.0,0.0,0.0,0.0,0.0,0.0,0.0,0.0,-0.226611,0.161865,-9.841392,0.0,0.0,0.0,0.0,0.0,0.0,0.0,0.0,0.0
1637022424336409063,1936,1637022424336155309,,0.0,0.0,0.0,0.0,-1.0,0.0,0.0,0.0,0.0,0.0,0.0,0.0,0.0,-0.0165806278939,-0.010471975512,0.992219679759,0.0,0.0,0.0,0.0,0.0,0.0,0.0,0.0,0.0,0.679833,-0.129492,-10.456479,0.0,0.0,0.0,0.0,0.0,0.0,0.0,0.0,0.0
1637022424356502744,1937,1637022424356147015,,0.0,0.0,0.0,0.0,-1.0,0.0,0.0,0.0,0.0,0.0,0.0,0.0,0.0,-0.0244346095279,-0.0270526034059,0.945095789955,0.0,0.0,0.0,0.0,0.0,0.0,0.0,0.0,0.0,-0.194238,0.550341,-9.193932,0.0,0.0,0.0,0.0,0.0,0.0,0.0,0.0,0.0
1637022424376391605,1938,1637022424376223099,,0.0,0.0,0.0,0.0,-1.0,0.0,0.0,0.0,0.0,0.0,0.0,0.0,0.0,-0.0279252680319,-0.00174532925199,0.912807198793,0.0,0.0,0.0,0.0,0.0,0.0,0.0,0.0,0.0,0.161865,0.420849,-9.420543,0.0,0.0,0.0,0.0,0.0,0.0,0.0,0.0,0.0
1637022424396609122,1939,1637022424396169899,,0.0,0.0,0.0,0.0,-1.0,0.0,0.0,0.0,0.0,0.0,0.0,0.0,0.0,0.0235619449019,0.0183259571459,0.973021057987,0.0,0.0,0.0,0.0,0.0,0.0,0.0,0.0,0.0,0.485595,0.32373,-9.582408,0.0,0.0,0.0,0.0,0.0,0.0,0.0,0.0,0.0
1637022424416509690,1940,1637022424416155299,,0.0,0.0,0.0,0.0,-1.0,0.0,0.0,0.0,0.0,0.0,0.0,0.0,0.0,0.014835298642,-0.01308996939,1.09519410563,0.0,0.0,0.0,0.0,0.0,0.0,0.0,0.0,0.0,-0.388476,0.194238,-10.003257,0.0,0.0,0.0,0.0,0.0,0.0,0.0,0.0,0.0
1637022424436698364,1941,1637022424436350444,,0.0,0.0,0.0,0.0,-1.0,0.0,0.0,0.0,0.0,0.0,0.0,0.0,0.0,0.0366519142919,0.00436332312999,1.02974425868,0.0,0.0,0.0,0.0,0.0,0.0,0.0,0.0,0.0,0.0,0.032373,-9.7119,0.0,0.0,0.0,0.0,0.0,0.0,0.0,0.0,0.0
1637022424456241824,1942,1637022424456002489,,0.0,0.0,0.0,0.0,-1.0,0.0,0.0,0.0,0.0,0.0,0.0,0.0,0.0,-0.0436332312999,0.00698131700798,0.935496479069,0.0,0.0,0.0,0.0,0.0,0.0,0.0,0.0,0.0,0.258984,-0.194238,-9.614781,0.0,0.0,0.0,0.0,0.0,0.0,0.0,0.0,0.0
1637022424476258855,1943,1637022424476035949,,0.0,0.0,0.0,0.0,-1.0,0.0,0.0,0.0,0.0,0.0,0.0,0.0,0.0,0.0218166156499,0.014835298642,0.913679863419,0.0,0.0,0.0,0.0,0.0,0.0,0.0,0.0,0.0,0.356103,-0.226611,-9.452916,0.0,0.0,0.0,0.0,0.0,0.0,0.0,0.0,0.0
1637022424496285453,1944,1637022424496031878,,0.0,0.0,0.0,0.0,-1.0,0.0,0.0,0.0,0.0,0.0,0.0,0.0,0.0,0.0305432619099,-0.0218166156499,1.04108889881,0.0,0.0,0.0,0.0,0.0,0.0,0.0,0.0,0.0,-0.161865,0.453222,-9.679527,0.0,0.0,0.0,0.0,0.0,0.0,0.0,0.0,0.0
1637022424516586677,1945,1637022424516099746,,0.0,0.0,0.0,0.0,-1.0,0.0,0.0,0.0,0.0,0.0,0.0,0.0,0.0,0.0200712863979,-0.013962634016,0.988729021255,0.0,0.0,0.0,0.0,0.0,0.0,0.0,0.0,0.0,0.291357,0.097119,-10.165122,0.0,0.0,0.0,0.0,0.0,0.0,0.0,0.0,0.0
1637022424536250386,1946,1637022424536016928,,0.0,0.0,0.0,0.0,-1.0,0.0,0.0,0.0,0.0,0.0,0.0,0.0,0.0,-0.013962634016,0.0200712863979,0.968657734857,0.0,0.0,0.0,0.0,0.0,0.0,0.0,0.0,0.0,0.744579,0.291357,-9.7119,0.0,0.0,0.0,0.0,0.0,0.0,0.0,0.0,0.0
1637022424556339387,1947,1637022424556012862,,0.0,0.0,0.0,0.0,-1.0,0.0,0.0,0.0,0.0,0.0,0.0,0.0,0.0,-0.0427605666739,0.0165806278939,1.04370689269,0.0,0.0,0.0,0.0,0.0,0.0,0.0,0.0,0.0,-0.712206,0.226611,-8.643591,0.0,0.0,0.0,0.0,0.0,0.0,0.0,0.0,0.0
1637022424576490873,1948,1637022424576183125,,0.0,0.0,0.0,0.0,-1.0,0.0,0.0,0.0,0.0,0.0,0.0,0.0,0.0,0.0698131700798,-0.0218166156499,1.03148958793,0.0,0.0,0.0,0.0,0.0,0.0,0.0,0.0,0.0,-0.161865,-0.161865,-9.679527,0.0,0.0,0.0,0.0,0.0,0.0,0.0,0.0,0.0
1637022424597014178,1949,1637022424596468238,,0.0,0.0,0.0,0.0,-1.0,0.0,0.0,0.0,0.0,0.0,0.0,0.0,0.0,-0.00174532925199,0.00261799387799,1.07774081311,0.0,0.0,0.0,0.0,0.0,0.0,0.0,0.0,0.0,0.420849,0.679833,-10.521225,0.0,0.0,0.0,0.0,0.0,0.0,0.0,0.0,0.0
1637022424617497212,1950,1637022424616292476,,0.0,0.0,0.0,0.0,-1.0,0.0,0.0,0.0,0.0,0.0,0.0,0.0,0.0,0.0270526034059,0.0392699081699,1.03148958793,0.0,0.0,0.0,0.0,0.0,0.0,0.0,0.0,0.0,-0.356103,-0.161865,-9.517662,0.0,0.0,0.0,0.0,0.0,0.0,0.0,0.0,0.0
1637022424636518248,1951,1637022424636216580,,0.0,0.0,0.0,0.0,-1.0,0.0,0.0,0.0,0.0,0.0,0.0,0.0,0.0,-0.0349065850399,-0.0157079632679,0.955567765467,0.0,0.0,0.0,0.0,0.0,0.0,0.0,0.0,0.0,0.097119,0.032373,-8.805456,0.0,0.0,0.0,0.0,0.0,0.0,0.0,0.0,0.0
1637022424657824953,1952,1637022424656267928,,0.0,0.0,0.0,0.0,-1.0,0.0,0.0,0.0,0.0,0.0,0.0,0.0,0.0,0.0,-0.00349065850399,0.992219679759,0.0,0.0,0.0,0.0,0.0,0.0,0.0,0.0,0.0,0.032373,0.097119,-9.938511,0.0,0.0,0.0,0.0,0.0,0.0,0.0,0.0,0.0
1637022424676684587,1953,1637022424676272610,,0.0,0.0,0.0,0.0,-1.0,0.0,0.0,0.0,0.0,0.0,0.0,0.0,0.0,0.0357792496659,-0.00436332312999,1.0070549784,0.0,0.0,0.0,0.0,0.0,0.0,0.0,0.0,0.0,0.032373,0.291357,-9.970884,0.0,0.0,0.0,0.0,0.0,0.0,0.0,0.0,0.0
1637022424696862899,1954,1637022424696274186,,0.0,0.0,0.0,0.0,-1.0,0.0,0.0,0.0,0.0,0.0,0.0,0.0,0.0,0.00610865238198,-0.0165806278939,0.997455667515,0.0,0.0,0.0,0.0,0.0,0.0,0.0,0.0,0.0,0.0,-0.291357,-9.809019,0.0,0.0,0.0,0.0,0.0,0.0,0.0,0.0,0.0
1637022424716695631,1955,1637022424716335428,,0.0,0.0,0.0,0.0,-1.0,0.0,0.0,0.0,0.0,0.0,0.0,0.0,0.0,0.0453785605519,0.0218166156499,0.956440430093,0.0,0.0,0.0,0.0,0.0,0.0,0.0,0.0,0.0,0.258984,0.420849,-9.550035,0.0,0.0,0.0,0.0,0.0,0.0,0.0,0.0,0.0
1637022424736582751,1956,1637022424736258412,,0.0,0.0,0.0,0.0,-1.0,0.0,0.0,0.0,0.0,0.0,0.0,0.0,0.0,-0.0453785605519,-0.0165806278939,0.950331777711,0.0,0.0,0.0,0.0,0.0,0.0,0.0,0.0,0.0,0.226611,0.0,-9.679527,0.0,0.0,0.0,0.0,0.0,0.0,0.0,0.0,0.0
1637022424757069674,1957,1637022424756423033,,0.0,0.0,0.0,0.0,-1.0,0.0,0.0,0.0,0.0,0.0,0.0,0.0,0.0,0.0541052068118,0.00174532925199,1.00269165527,0.0,0.0,0.0,0.0,0.0,0.0,0.0,0.0,0.0,-0.161865,0.226611,-9.776646,0.0,0.0,0.0,0.0,0.0,0.0,0.0,0.0,0.0
1637022424776519466,1958,1637022424776298856,,0.0,0.0,0.0,0.0,-1.0,0.0,0.0,0.0,0.0,0.0,0.0,0.0,0.0,0.0349065850399,-0.0497418836818,1.04632488657,0.0,0.0,0.0,0.0,0.0,0.0,0.0,0.0,0.0,0.161865,-0.129492,-9.841392,0.0,0.0,0.0,0.0,0.0,0.0,0.0,0.0,0.0
1637022424796509879,1959,1637022424796264280,,0.0,0.0,0.0,0.0,-1.0,0.0,0.0,0.0,0.0,0.0,0.0,0.0,0.0,0.0305432619099,0.00610865238198,0.954695100841,0.0,0.0,0.0,0.0,0.0,0.0,0.0,0.0,0.0,0.291357,0.291357,-9.809019,0.0,0.0,0.0,0.0,0.0,0.0,0.0,0.0,0.0
1637022424816885694,1960,1637022424816624141,,0.0,0.0,0.0,0.0,-1.0,0.0,0.0,0.0,0.0,0.0,0.0,0.0,0.0,-0.0287979326579,0.00349065850399,0.883136601509,0.0,0.0,0.0,0.0,0.0,0.0,0.0,0.0,0.0,0.32373,0.517968,-9.550035,0.0,0.0,0.0,0.0,0.0,0.0,0.0,0.0,0.0
1637022424836977170,1961,1637022424836633641,,0.0,0.0,0.0,0.0,-1.0,0.0,0.0,0.0,0.0,0.0,0.0,0.0,0.0,0.01308996939,0.00959931088597,0.969530399483,0.0,0.0,0.0,0.0,0.0,0.0,0.0,0.0,0.0,-0.388476,-0.453222,-8.967321,0.0,0.0,0.0,0.0,0.0,0.0,0.0,0.0,0.0
1637022424857702828,1962,1637022424856708900,,0.0,0.0,0.0,0.0,-1.0,0.0,0.0,0.0,0.0,0.0,0.0,0.0,0.0,0.0218166156499,-0.010471975512,1.06901416685,0.0,0.0,0.0,0.0,0.0,0.0,0.0,0.0,0.0,0.0,0.615087,-9.7119,0.0,0.0,0.0,0.0,0.0,0.0,0.0,0.0,0.0
1637022424876531263,1963,1637022424876208999,,0.0,0.0,0.0,0.0,-1.0,0.0,0.0,0.0,0.0,0.0,0.0,0.0,0.0,0.0296705972839,0.011344640138,0.995710338263,0.0,0.0,0.0,0.0,0.0,0.0,0.0,0.0,0.0,0.161865,0.194238,-10.068003,0.0,0.0,0.0,0.0,0.0,0.0,0.0,0.0,0.0
1637022424896525947,1964,1637022424896225577,,0.0,0.0,0.0,0.0,-1.0,0.0,0.0,0.0,0.0,0.0,0.0,0.0,0.0,-0.0296705972839,0.00174532925199,0.961676417849,0.0,0.0,0.0,0.0,0.0,0.0,0.0,0.0,0.0,0.064746,0.32373,-9.291051,0.0,0.0,0.0,0.0,0.0,0.0,0.0,0.0,0.0
1637022424917006980,1965,1637022424916510030,,0.0,0.0,0.0,0.0,-1.0,0.0,0.0,0.0,0.0,0.0,0.0,0.0,0.0,-0.00785398163397,-0.0209439510239,1.00443698452,0.0,0.0,0.0,0.0,0.0,0.0,0.0,0.0,0.0,-0.194238,-0.356103,-9.517662,0.0,0.0,0.0,0.0,0.0,0.0,0.0,0.0,0.0
1637022424936154738,1966,1637022424936041302,,0.0,0.0,0.0,0.0,-1.0,0.0,0.0,0.0,0.0,0.0,0.0,0.0,0.0,0.0322885911619,0.00349065850399,1.02276294167,0.0,0.0,0.0,0.0,0.0,0.0,0.0,0.0,0.0,0.097119,0.064746,-9.970884,0.0,0.0,0.0,0.0,0.0,0.0,0.0,0.0,0.0
1637022424956135744,1967,1637022424955977477,,0.0,0.0,0.0,0.0,-1.0,0.0,0.0,0.0,0.0,0.0,0.0,0.0,0.0,0.0340339204139,-0.0165806278939,1.01665428929,0.0,0.0,0.0,0.0,0.0,0.0,0.0,0.0,0.0,-0.097119,0.420849,-9.906138,0.0,0.0,0.0,0.0,0.0,0.0,0.0,0.0,0.0
1637022424976219341,1968,1637022424976057189,,0.0,0.0,0.0,0.0,-1.0,0.0,0.0,0.0,0.0,0.0,0.0,0.0,0.0,0.0200712863979,0.00261799387799,0.978257045743,0.0,0.0,0.0,0.0,0.0,0.0,0.0,0.0,0.0,-0.291357,0.615087,-9.744273,0.0,0.0,0.0,0.0,0.0,0.0,0.0,0.0,0.0
1637022424996192082,1969,1637022424996040187,,0.0,0.0,0.0,0.0,-1.0,0.0,0.0,0.0,0.0,0.0,0.0,0.0,0.0,-0.0445058959259,0.00698131700798,0.941605131451,0.0,0.0,0.0,0.0,0.0,0.0,0.0,0.0,0.0,0.097119,-0.194238,-9.06444,0.0,0.0,0.0,0.0,0.0,0.0,0.0,0.0,0.0
1637022425016454646,1970,1637022425016087507,,0.0,0.0,0.0,0.0,-1.0,0.0,0.0,0.0,0.0,0.0,0.0,0.0,0.0,0.0654498469498,0.0183259571459,0.955567765467,0.0,0.0,0.0,0.0,0.0,0.0,0.0,0.0,0.0,0.0,0.194238,-9.647154,0.0,0.0,0.0,0.0,0.0,0.0,0.0,0.0,0.0
1637022425036185072,1971,1637022425036046327,,0.0,0.0,0.0,0.0,-1.0,0.0,0.0,0.0,0.0,0.0,0.0,0.0,0.0,0.0383972435439,-0.00349065850399,1.02887159405,0.0,0.0,0.0,0.0,0.0,0.0,0.0,0.0,0.0,0.0,0.258984,-9.485289,0.0,0.0,0.0,0.0,0.0,0.0,0.0,0.0,0.0
1637022425056333838,1972,1637022425056132690,,0.0,0.0,0.0,0.0,-1.0,0.0,0.0,0.0,0.0,0.0,0.0,0.0,0.0,0.0218166156499,-0.01308996939,0.980875039621,0.0,0.0,0.0,0.0,0.0,0.0,0.0,0.0,0.0,0.032373,0.453222,-9.873765,0.0,0.0,0.0,0.0,0.0,0.0,0.0,0.0,0.0
1637022425076597019,1973,1637022425076361134,,0.0,0.0,0.0,0.0,-1.0,0.0,0.0,0.0,0.0,0.0,0.0,0.0,0.0,0.00872664625997,0.00174532925199,0.958185759345,0.0,0.0,0.0,0.0,0.0,0.0,0.0,0.0,0.0,0.032373,-0.129492,-9.679527,0.0,0.0,0.0,0.0,0.0,0.0,0.0,0.0,0.0
1637022425097302688,1974,1637022425096677156,,0.0,0.0,0.0,0.0,-1.0,0.0,0.0,0.0,0.0,0.0,0.0,0.0,0.0,-0.00174532925199,0.0331612557879,0.957313094719,0.0,0.0,0.0,0.0,0.0,0.0,0.0,0.0,0.0,0.291357,-0.064746,-8.902575,0.0,0.0,0.0,0.0,0.0,0.0,0.0,0.0,0.0
1637022425117520619,1975,1637022425116912723,,0.0,0.0,0.0,0.0,-1.0,0.0,0.0,0.0,0.0,0.0,0.0,0.0,0.0,0.0331612557879,0.01308996939,1.0035643199,0.0,0.0,0.0,0.0,0.0,0.0,0.0,0.0,0.0,-0.32373,0.517968,-9.7119,0.0,0.0,0.0,0.0,0.0,0.0,0.0,0.0,0.0
1637022425138418922,1976,1637022425137928254,,0.0,0.0,0.0,0.0,-1.0,0.0,0.0,0.0,0.0,0.0,0.0,0.0,0.0,0.000872664625997,-0.00872664625997,1.0306169233,0.0,0.0,0.0,0.0,0.0,0.0,0.0,0.0,0.0,0.388476,0.0,-10.03563,0.0,0.0,0.0,0.0,0.0,0.0,0.0,0.0,0.0
1637022425159253833,1977,1637022425158143610,,0.0,0.0,0.0,0.0,-1.0,0.0,0.0,0.0,0.0,0.0,0.0,0.0,0.0,-0.0226892802759,0.01308996939,0.948586448459,0.0,0.0,0.0,0.0,0.0,0.0,0.0,0.0,0.0,0.258984,-0.097119,-9.647154,0.0,0.0,0.0,0.0,0.0,0.0,0.0,0.0,0.0
1637022425179969677,1978,1637022425177884195,,0.0,0.0,0.0,0.0,-1.0,0.0,0.0,0.0,0.0,0.0,0.0,0.0,0.0,-0.0296705972839,0.00959931088597,0.966912405605,0.0,0.0,0.0,0.0,0.0,0.0,0.0,0.0,0.0,0.032373,0.064746,-8.967321,0.0,0.0,0.0,0.0,0.0,0.0,0.0,0.0,0.0
1637022425199236229,1979,1637022425198367550,,0.0,0.0,0.0,0.0,-1.0,0.0,0.0,0.0,0.0,0.0,0.0,0.0,0.0,0.0296705972839,0.00610865238198,1.04457955732,0.0,0.0,0.0,0.0,0.0,0.0,0.0,0.0,0.0,-0.258984,0.388476,-9.550035,0.0,0.0,0.0,0.0,0.0,0.0,0.0,0.0,0.0
1637022425217271710,1980,1637022425216516190,,0.0,0.0,0.0,0.0,-1.0,0.0,0.0,0.0,0.0,0.0,0.0,0.0,0.0,0.00349065850399,0.0,1.04632488657,0.0,0.0,0.0,0.0,0.0,0.0,0.0,0.0,0.0,0.388476,0.064746,-10.132749,0.0,0.0,0.0,0.0,0.0,0.0,0.0,0.0,0.0
1637022425236272429,1981,1637022425236097232,,0.0,0.0,0.0,0.0,-1.0,0.0,0.0,0.0,0.0,0.0,0.0,0.0,0.0,0.0165806278939,-0.00349065850399,1.04457955732,0.0,0.0,0.0,0.0,0.0,0.0,0.0,0.0,0.0,-0.129492,0.129492,-9.647154,0.0,0.0,0.0,0.0,0.0,0.0,0.0,0.0,0.0
1637022425256342216,1982,1637022425255956213,,0.0,0.0,0.0,0.0,-1.0,0.0,0.0,0.0,0.0,0.0,0.0,0.0,0.0,-0.0226892802759,0.00174532925199,1.01927228316,0.0,0.0,0.0,0.0,0.0,0.0,0.0,0.0,0.0,-0.064746,-0.161865,-8.967321,0.0,0.0,0.0,0.0,0.0,0.0,0.0,0.0,0.0
1637022425276029025,1983,1637022425275944983,,0.0,0.0,0.0,0.0,-1.0,0.0,0.0,0.0,0.0,0.0,0.0,0.0,0.0,0.0226892802759,-0.00261799387799,0.991347015133,0.0,0.0,0.0,0.0,0.0,0.0,0.0,0.0,0.0,0.550341,-0.291357,-10.197495,0.0,0.0,0.0,0.0,0.0,0.0,0.0,0.0,0.0
1637022425296515018,1984,1637022425296101488,,0.0,0.0,0.0,0.0,-1.0,0.0,0.0,0.0,0.0,0.0,0.0,0.0,0.0,0.0357792496659,-0.0331612557879,1.0707594961,0.0,0.0,0.0,0.0,0.0,0.0,0.0,0.0,0.0,-0.291357,0.582714,-9.614781,0.0,0.0,0.0,0.0,0.0,0.0,0.0,0.0,0.0
1637022425316184201,1985,1637022425315937766,,0.0,0.0,0.0,0.0,-1.0,0.0,0.0,0.0,0.0,0.0,0.0,0.0,0.0,0.0610865238198,0.000872664625997,1.03236225255,0.0,0.0,0.0,0.0,0.0,0.0,0.0,0.0,0.0,-0.291357,0.064746,-10.03563,0.0,0.0,0.0,0.0,0.0,0.0,0.0,0.0,0.0
1637022425336139474,1986,1637022425335996342,,0.0,0.0,0.0,0.0,-1.0,0.0,0.0,0.0,0.0,0.0,0.0,0.0,0.0,0.011344640138,0.012217304764,0.961676417849,0.0,0.0,0.0,0.0,0.0,0.0,0.0,0.0,0.0,0.744579,-0.420849,-9.970884,0.0,0.0,0.0,0.0,0.0,0.0,0.0,0.0,0.0
1637022425356098308,1987,1637022425355999778,,0.0,0.0,0.0,0.0,-1.0,0.0,0.0,0.0,0.0,0.0,0.0,0.0,0.0,-0.012217304764,0.0322885911619,0.966039740979,0.0,0.0,0.0,0.0,0.0,0.0,0.0,0.0,0.0,-0.097119,0.550341,-8.675964,0.0,0.0,0.0,0.0,0.0,0.0,0.0,0.0,0.0
1637022425376120815,1988,1637022425376016339,,0.0,0.0,0.0,0.0,-1.0,0.0,0.0,0.0,0.0,0.0,0.0,0.0,0.0,0.0558505360638,0.00436332312999,1.00618231377,0.0,0.0,0.0,0.0,0.0,0.0,0.0,0.0,0.0,-0.517968,0.032373,-9.550035,0.0,0.0,0.0,0.0,0.0,0.0,0.0,0.0,0.0
1637022425396329406,1989,1637022425396101557,,0.0,0.0,0.0,0.0,-1.0,0.0,0.0,0.0,0.0,0.0,0.0,0.0,0.0,0.01308996939,-0.0261799387799,0.982620368873,0.0,0.0,0.0,0.0,0.0,0.0,0.0,0.0,0.0,0.453222,0.032373,-9.873765,0.0,0.0,0.0,0.0,0.0,0.0,0.0,0.0,0.0
1637022425416427011,1990,1637022425416299672,,0.0,0.0,0.0,0.0,-1.0,0.0,0.0,0.0,0.0,0.0,0.0,0.0,0.0,0.013962634016,0.0218166156499,0.918915851175,0.0,0.0,0.0,0.0,0.0,0.0,0.0,0.0,0.0,0.129492,0.0,-9.776646,0.0,0.0,0.0,0.0,0.0,0.0,0.0,0.0,0.0
1637022425436341425,1991,1637022425436127394,,0.0,0.0,0.0,0.0,-1.0,0.0,0.0,0.0,0.0,0.0,0.0,0.0,0.0,-0.00349065850399,0.0191986217719,0.836885376331,0.0,0.0,0.0,0.0,0.0,0.0,0.0,0.0,0.0,0.32373,-0.420849,-9.161559,0.0,0.0,0.0,0.0,0.0,0.0,0.0,0.0,0.0
1637022425456498136,1992,1637022425456283590,,0.0,0.0,0.0,0.0,-1.0,0.0,0.0,0.0,0.0,0.0,0.0,0.0,0.0,-0.0445058959259,-0.0462512251778,0.824668071567,0.0,0.0,0.0,0.0,0.0,0.0,0.0,0.0,0.0,-0.064746,0.194238,-9.38817,0.0,0.0,0.0,0.0,0.0,0.0,0.0,0.0,0.0
1637022425476451241,1993,1637022425476279681,,0.0,0.0,0.0,0.0,-1.0,0.0,0.0,0.0,0.0,0.0,0.0,0.0,0.0,0.0392699081699,0.013962634016,0.918915851175,0.0,0.0,0.0,0.0,0.0,0.0,0.0,0.0,0.0,0.0,0.517968,-10.229868,0.0,0.0,0.0,0.0,0.0,0.0,0.0,0.0,0.0
1637022425498271668,1994,1637022425497070428,,0.0,0.0,0.0,0.0,-1.0,0.0,0.0,0.0,0.0,0.0,0.0,0.0,0.0,0.0218166156499,0.013962634016,0.938114472947,0.0,0.0,0.0,0.0,0.0,0.0,0.0,0.0,0.0,0.161865,0.453222,-10.100376,0.0,0.0,0.0,0.0,0.0,0.0,0.0,0.0,0.0
1637022425518832722,1995,1637022425517119952,,0.0,0.0,0.0,0.0,-1.0,0.0,0.0,0.0,0.0,0.0,0.0,0.0,0.0,0.0279252680319,0.00785398163397,0.878773278379,0.0,0.0,0.0,0.0,0.0,0.0,0.0,0.0,0.0,0.291357,0.064746,-9.550035,0.0,0.0,0.0,0.0,0.0,0.0,0.0,0.0,0.0
1637022425538902219,1996,1637022425537510845,,0.0,0.0,0.0,0.0,-1.0,0.0,0.0,0.0,0.0,0.0,0.0,0.0,0.0,-0.0209439510239,-0.00349065850399,0.861319985859,0.0,0.0,0.0,0.0,0.0,0.0,0.0,0.0,0.0,0.356103,0.32373,-9.809019,0.0,0.0,0.0,0.0,0.0,0.0,0.0,0.0,0.0
1637022425558730641,1997,1637022425557826386,,0.0,0.0,0.0,0.0,-1.0,0.0,0.0,0.0,0.0,0.0,0.0,0.0,0.0,-0.00436332312999,0.0157079632679,0.856083998103,0.0,0.0,0.0,0.0,0.0,0.0,0.0,0.0,0.0,0.453222,-0.453222,-9.744273,0.0,0.0,0.0,0.0,0.0,0.0,0.0,0.0,0.0
1637022425578233169,1998,1637022425577315524,,0.0,0.0,0.0,0.0,-1.0,0.0,0.0,0.0,0.0,0.0,0.0,0.0,0.0,0.0401425727959,0.0174532925199,0.911061869541,0.0,0.0,0.0,0.0,0.0,0.0,0.0,0.0,0.0,-0.194238,0.0,-9.679527,0.0,0.0,0.0,0.0,0.0,0.0,0.0,0.0,0.0
1637022425598604262,1999,1637022425597297086,,0.0,0.0,0.0,0.0,-1.0,0.0,0.0,0.0,0.0,0.0,0.0,0.0,0.0,0.0558505360638,0.0,0.906698546411,0.0,0.0,0.0,0.0,0.0,0.0,0.0,0.0,0.0,-0.291357,0.291357,-9.517662,0.0,0.0,0.0,0.0,0.0,0.0,0.0,0.0,0.0
1637022425617148261,2000,1637022425616542014,,0.0,0.0,0.0,0.0,-1.0,0.0,0.0,0.0,0.0,0.0,0.0,0.0,0.0,0.0183259571459,0.00698131700798,0.893608577021,0.0,0.0,0.0,0.0,0.0,0.0,0.0,0.0,0.0,0.420849,0.679833,-9.7119,0.0,0.0,0.0,0.0,0.0,0.0,0.0,0.0,0.0
1637022425637596654,2001,1637022425636104669,,0.0,0.0,0.0,0.0,-1.0,0.0,0.0,0.0,0.0,0.0,0.0,0.0,0.0,-0.0253072741539,0.0418879020479,0.919788515801,0.0,0.0,0.0,0.0,0.0,0.0,0.0,0.0,0.0,0.32373,-0.161865,-9.161559,0.0,0.0,0.0,0.0,0.0,0.0,0.0,0.0,0.0
1637022425656251813,2002,1637022425656070935,,0.0,0.0,0.0,0.0,-1.0,0.0,0.0,0.0,0.0,0.0,0.0,0.0,0.0,-0.00959931088597,0.0191986217719,0.879645943005,0.0,0.0,0.0,0.0,0.0,0.0,0.0,0.0,0.0,0.809325,-0.226611,-10.100376,0.0,0.0,0.0,0.0,0.0,0.0,0.0,0.0,0.0
1637022425676991563,2003,1637022425675999729,,0.0,0.0,0.0,0.0,-1.0,0.0,0.0,0.0,0.0,0.0,0.0,0.0,0.0,0.0287979326579,-0.0165806278939,0.930260491313,0.0,0.0,0.0,0.0,0.0,0.0,0.0,0.0,0.0,-0.485595,0.356103,-9.291051,0.0,0.0,0.0,0.0,0.0,0.0,0.0,0.0,0.0
1637022425696507742,2004,1637022425696162313,,0.0,0.0,0.0,0.0,-1.0,0.0,0.0,0.0,0.0,0.0,0.0,0.0,0.0,0.0270526034059,0.01308996939,0.954695100841,0.0,0.0,0.0,0.0,0.0,0.0,0.0,0.0,0.0,-0.550341,0.356103,-9.550035,0.0,0.0,0.0,0.0,0.0,0.0,0.0,0.0,0.0
1637022425717109334,2005,1637022425716015718,,0.0,0.0,0.0,0.0,-1.0,0.0,0.0,0.0,0.0,0.0,0.0,0.0,0.0,-0.00959931088597,0.010471975512,0.836012711705,0.0,0.0,0.0,0.0,0.0,0.0,0.0,0.0,0.0,0.517968,0.258984,-10.262241,0.0,0.0,0.0,0.0,0.0,0.0,0.0,0.0,0.0
1637022425736299538,2006,1637022425736055066,,0.0,0.0,0.0,0.0,-1.0,0.0,0.0,0.0,0.0,0.0,0.0,0.0,0.0,-0.0209439510239,0.0637045176978,0.851720674973,0.0,0.0,0.0,0.0,0.0,0.0,0.0,0.0,0.0,0.388476,0.356103,-9.647154,0.0,0.0,0.0,0.0,0.0,0.0,0.0,0.0,0.0
1637022425756240235,2007,1637022425756096486,,0.0,0.0,0.0,0.0,-1.0,0.0,0.0,0.0,0.0,0.0,0.0,0.0,0.0,-0.0165806278939,-0.0253072741539,0.918043186549,0.0,0.0,0.0,0.0,0.0,0.0,0.0,0.0,0.0,-0.809325,-0.064746,-9.226305,0.0,0.0,0.0,0.0,0.0,0.0,0.0,0.0,0.0
1637022425776493823,2008,1637022425776243258,,0.0,0.0,0.0,0.0,-1.0,0.0,0.0,0.0,0.0,0.0,0.0,0.0,0.0,0.0558505360638,-0.00436332312999,0.869173967493,0.0,0.0,0.0,0.0,0.0,0.0,0.0,0.0,0.0,0.420849,0.291357,-10.100376,0.0,0.0,0.0,0.0,0.0,0.0,0.0,0.0,0.0
1637022425796595695,2009,1637022425796206117,,0.0,0.0,0.0,0.0,-1.0,0.0,0.0,0.0,0.0,0.0,0.0,0.0,0.0,-0.00610865238198,0.00349065850399,0.877027949127,0.0,0.0,0.0,0.0,0.0,0.0,0.0,0.0,0.0,-0.161865,0.226611,-9.744273,0.0,0.0,0.0,0.0,0.0,0.0,0.0,0.0,0.0
1637022425817864378,2010,1637022425817030405,,0.0,0.0,0.0,0.0,-1.0,0.0,0.0,0.0,0.0,0.0,0.0,0.0,0.0,0.012217304764,0.0279252680319,0.849102681095,0.0,0.0,0.0,0.0,0.0,0.0,0.0,0.0,0.0,0.097119,0.453222,-9.258678,0.0,0.0,0.0,0.0,0.0,0.0,0.0,0.0,0.0
1637022425836950897,2011,1637022425836475434,,0.0,0.0,0.0,0.0,-1.0,0.0,0.0,0.0,0.0,0.0,0.0,0.0,0.0,-0.0218166156499,-0.00610865238198,0.854338668851,0.0,0.0,0.0,0.0,0.0,0.0,0.0,0.0,0.0,0.453222,-0.097119,-9.873765,0.0,0.0,0.0,0.0,0.0,0.0,0.0,0.0,0.0
1637022425857538117,2012,1637022425856594133,,0.0,0.0,0.0,0.0,-1.0,0.0,0.0,0.0,0.0,0.0,0.0,0.0,0.0,-0.0174532925199,-0.0157079632679,0.904080552533,0.0,0.0,0.0,0.0,0.0,0.0,0.0,0.0,0.0,0.0,0.161865,-9.517662,0.0,0.0,0.0,0.0,0.0,0.0,0.0,0.0,0.0
1637022425877390697,2013,1637022425876545286,,0.0,0.0,0.0,0.0,-1.0,0.0,0.0,0.0,0.0,0.0,0.0,0.0,0.0,0.00785398163397,-0.012217304764,0.936369143695,0.0,0.0,0.0,0.0,0.0,0.0,0.0,0.0,0.0,0.032373,-0.097119,-9.258678,0.0,0.0,0.0,0.0,0.0,0.0,0.0,0.0,0.0
1637022425897242167,2014,1637022425896423902,,0.0,0.0,0.0,0.0,-1.0,0.0,0.0,0.0,0.0,0.0,0.0,0.0,0.0,0.0183259571459,0.0235619449019,0.904953217159,0.0,0.0,0.0,0.0,0.0,0.0,0.0,0.0,0.0,-0.291357,0.938817,-10.100376,0.0,0.0,0.0,0.0,0.0,0.0,0.0,0.0,0.0
1637022425916842403,2015,1637022425916405067,,0.0,0.0,0.0,0.0,-1.0,0.0,0.0,0.0,0.0,0.0,0.0,0.0,0.0,0.0174532925199,-0.00261799387799,0.885754595387,0.0,0.0,0.0,0.0,0.0,0.0,0.0,0.0,0.0,0.841698,-0.129492,-9.809019,0.0,0.0,0.0,0.0,0.0,0.0,0.0,0.0,0.0
1637022425936358959,2016,1637022425936106869,,0.0,0.0,0.0,0.0,-1.0,0.0,0.0,0.0,0.0,0.0,0.0,0.0,0.0,-0.0392699081699,0.0637045176978,0.830776723949,0.0,0.0,0.0,0.0,0.0,0.0,0.0,0.0,0.0,0.388476,-0.258984,-9.517662,0.0,0.0,0.0,0.0,0.0,0.0,0.0,0.0,0.0
1637022425956139718,2017,1637022425955999800,,0.0,0.0,0.0,0.0,-1.0,0.0,0.0,0.0,0.0,0.0,0.0,0.0,0.0,-0.00698131700798,0.000872664625997,0.806342114421,0.0,0.0,0.0,0.0,0.0,0.0,0.0,0.0,0.0,-0.064746,0.226611,-9.582408,0.0,0.0,0.0,0.0,0.0,0.0,0.0,0.0,0.0
1637022425976162436,2018,1637022425976077832,,0.0,0.0,0.0,0.0,-1.0,0.0,0.0,0.0,0.0,0.0,0.0,0.0,0.0,-0.00174532925199,-0.0209439510239,0.778416846389,0.0,0.0,0.0,0.0,0.0,0.0,0.0,0.0,0.0,-0.194238,0.0,-9.7119,0.0,0.0,0.0,0.0,0.0,0.0,0.0,0.0,0.0
1637022425996318200,2019,1637022425996032086,,0.0,0.0,0.0,0.0,-1.0,0.0,0.0,0.0,0.0,0.0,0.0,0.0,0.0,0.0488692190558,0.0174532925199,0.749618913732,0.0,0.0,0.0,0.0,0.0,0.0,0.0,0.0,0.0,0.453222,0.0,-9.873765,0.0,0.0,0.0,0.0,0.0,0.0,0.0,0.0,0.0
1637022426016281545,2020,1637022426016043670,,0.0,0.0,0.0,0.0,-1.0,0.0,0.0,0.0,0.0,0.0,0.0,0.0,0.0,-0.0165806278939,0.0794124809657,0.822050077689,0.0,0.0,0.0,0.0,0.0,0.0,0.0,0.0,0.0,-0.129492,0.097119,-9.970884,0.0,0.0,0.0,0.0,0.0,0.0,0.0,0.0,0.0
1637022426036206938,2021,1637022426036045450,,0.0,0.0,0.0,0.0,-1.0,0.0,0.0,0.0,0.0,0.0,0.0,0.0,0.0,-0.013962634016,-0.0235619449019,0.888372589265,0.0,0.0,0.0,0.0,0.0,0.0,0.0,0.0,0.0,0.550341,0.097119,-9.452916,0.0,0.0,0.0,0.0,0.0,0.0,0.0,0.0,0.0
1637022426056291837,2022,1637022426056117362,,0.0,0.0,0.0,0.0,-1.0,0.0,0.0,0.0,0.0,0.0,0.0,0.0,0.0,-0.0427605666739,0.0157079632679,0.859574656607,0.0,0.0,0.0,0.0,0.0,0.0,0.0,0.0,0.0,0.291357,0.356103,-9.7119,0.0,0.0,0.0,0.0,0.0,0.0,0.0,0.0,0.0
1637022426076257470,2023,1637022426076074762,,0.0,0.0,0.0,0.0,-1.0,0.0,0.0,0.0,0.0,0.0,0.0,0.0,0.0,0.00872664625997,-0.00959931088597,0.784525498771,0.0,0.0,0.0,0.0,0.0,0.0,0.0,0.0,0.0,0.32373,-0.453222,-9.355797,0.0,0.0,0.0,0.0,0.0,0.0,0.0,0.0,0.0
1637022426096524102,2024,1637022426096184444,,0.0,0.0,0.0,0.0,-1.0,0.0,0.0,0.0,0.0,0.0,0.0,0.0,0.0,0.00872664625997,-0.000872664625997,0.800233462039,0.0,0.0,0.0,0.0,0.0,0.0,0.0,0.0,0.0,-0.550341,0.258984,-9.938511,0.0,0.0,0.0,0.0,0.0,0.0,0.0,0.0,0.0
1637022426116697371,2025,1637022426116289060,,0.0,0.0,0.0,0.0,-1.0,0.0,0.0,0.0,0.0,0.0,0.0,0.0,0.0,0.0287979326579,0.00261799387799,0.804596785169,0.0,0.0,0.0,0.0,0.0,0.0,0.0,0.0,0.0,-0.291357,0.226611,-9.452916,0.0,0.0,0.0,0.0,0.0,0.0,0.0,0.0,0.0
1637022426136744299,2026,1637022426136295758,,0.0,0.0,0.0,0.0,-1.0,0.0,0.0,0.0,0.0,0.0,0.0,0.0,0.0,-0.010471975512,0.00785398163397,0.859574656607,0.0,0.0,0.0,0.0,0.0,0.0,0.0,0.0,0.0,0.679833,0.517968,-9.744273,0.0,0.0,0.0,0.0,0.0,0.0,0.0,0.0,0.0
1637022426156497341,2027,1637022426156246612,,0.0,0.0,0.0,0.0,-1.0,0.0,0.0,0.0,0.0,0.0,0.0,0.0,0.0,-0.00698131700798,0.00436332312999,0.844739357965,0.0,0.0,0.0,0.0,0.0,0.0,0.0,0.0,0.0,0.356103,-0.291357,-9.970884,0.0,0.0,0.0,0.0,0.0,0.0,0.0,0.0,0.0
1637022426176589281,2028,1637022426176342734,,0.0,0.0,0.0,0.0,-1.0,0.0,0.0,0.0,0.0,0.0,0.0,0.0,0.0,-0.011344640138,-0.00436332312999,0.779289511015,0.0,0.0,0.0,0.0,0.0,0.0,0.0,0.0,0.0,-0.32373,-0.064746,-9.614781,0.0,0.0,0.0,0.0,0.0,0.0,0.0,0.0,0.0
1637022426196365332,2029,1637022426196172375,,0.0,0.0,0.0,0.0,-1.0,0.0,0.0,0.0,0.0,0.0,0.0,0.0,0.0,0.0157079632679,-0.000872664625997,0.76096355387,0.0,0.0,0.0,0.0,0.0,0.0,0.0,0.0,0.0,0.0,0.356103,-9.517662,0.0,0.0,0.0,0.0,0.0,0.0,0.0,0.0,0.0
1637022426216846034,2030,1637022426216202133,,0.0,0.0,0.0,0.0,-1.0,0.0,0.0,0.0,0.0,0.0,0.0,0.0,0.0,0.0157079632679,0.00436332312999,0.832522053201,0.0,0.0,0.0,0.0,0.0,0.0,0.0,0.0,0.0,-0.776952,1.035936,-9.193932,0.0,0.0,0.0,0.0,0.0,0.0,0.0,0.0,0.0
1637022426236852286,2031,1637022426236195396,,0.0,0.0,0.0,0.0,-1.0,0.0,0.0,0.0,0.0,0.0,0.0,0.0,0.0,-0.00261799387799,0.0270526034059,0.824668071567,0.0,0.0,0.0,0.0,0.0,0.0,0.0,0.0,0.0,-0.097119,0.258984,-9.452916,0.0,0.0,0.0,0.0,0.0,0.0,0.0,0.0,0.0
1637022426256545820,2032,1637022426256219227,,0.0,0.0,0.0,0.0,-1.0,0.0,0.0,0.0,0.0,0.0,0.0,0.0,0.0,-0.00698131700798,0.0165806278939,0.884881930761,0.0,0.0,0.0,0.0,0.0,0.0,0.0,0.0,0.0,0.679833,0.032373,-10.391733,0.0,0.0,0.0,0.0,0.0,0.0,0.0,0.0,0.0
1637022426276394573,2033,1637022426276197015,,0.0,0.0,0.0,0.0,-1.0,0.0,0.0,0.0,0.0,0.0,0.0,0.0,0.0,0.0218166156499,0.00872664625997,0.856083998103,0.0,0.0,0.0,0.0,0.0,0.0,0.0,0.0,0.0,-0.258984,0.097119,-9.582408,0.0,0.0,0.0,0.0,0.0,0.0,0.0,0.0,0.0
1637022426296715519,2034,1637022426296223508,,0.0,0.0,0.0,0.0,-1.0,0.0,0.0,0.0,0.0,0.0,0.0,0.0,0.0,-0.00436332312999,-0.011344640138,0.788016157275,0.0,0.0,0.0,0.0,0.0,0.0,0.0,0.0,0.0,-0.194238,0.550341,-9.06444,0.0,0.0,0.0,0.0,0.0,0.0,0.0,0.0,0.0
1637022426316827290,2035,1637022426316204523,,0.0,0.0,0.0,0.0,-1.0,0.0,0.0,0.0,0.0,0.0,0.0,0.0,0.0,0.0314159265359,0.00959931088597,0.811578102177,0.0,0.0,0.0,0.0,0.0,0.0,0.0,0.0,0.0,-0.097119,0.064746,-9.776646,0.0,0.0,0.0,0.0,0.0,0.0,0.0,0.0,0.0
1637022426337210969,2036,1637022426336173520,,0.0,0.0,0.0,0.0,-1.0,0.0,0.0,0.0,0.0,0.0,0.0,0.0,0.0,0.014835298642,0.0235619449019,0.860447321233,0.0,0.0,0.0,0.0,0.0,0.0,0.0,0.0,0.0,0.129492,0.388476,-9.614781,0.0,0.0,0.0,0.0,0.0,0.0,0.0,0.0,0.0
1637022426356522200,2037,1637022426356100480,,0.0,0.0,0.0,0.0,-1.0,0.0,0.0,0.0,0.0,0.0,0.0,0.0,0.0,0.011344640138,0.0183259571459,0.892735912395,0.0,0.0,0.0,0.0,0.0,0.0,0.0,0.0,0.0,0.679833,0.129492,-10.003257,0.0,0.0,0.0,0.0,0.0,0.0,0.0,0.0,0.0
1637022426376428902,2038,1637022426376145019,,0.0,0.0,0.0,0.0,-1.0,0.0,0.0,0.0,0.0,0.0,0.0,0.0,0.0,-0.00174532925199,-0.00349065850399,0.898844564777,0.0,0.0,0.0,0.0,0.0,0.0,0.0,0.0,0.0,0.0,0.161865,-9.193932,0.0,0.0,0.0,0.0,0.0,0.0,0.0,0.0,0.0
1637022426396525387,2039,1637022426396126805,,0.0,0.0,0.0,0.0,-1.0,0.0,0.0,0.0,0.0,0.0,0.0,0.0,0.0,-0.01308996939,0.00959931088597,0.771435529381,0.0,0.0,0.0,0.0,0.0,0.0,0.0,0.0,0.0,-0.064746,-0.388476,-9.7119,0.0,0.0,0.0,0.0,0.0,0.0,0.0,0.0,0.0
1637022426417533377,2040,1637022426416670482,,0.0,0.0,0.0,0.0,-1.0,0.0,0.0,0.0,0.0,0.0,0.0,0.0,0.0,0.00698131700798,-0.0183259571459,0.711221670188,0.0,0.0,0.0,0.0,0.0,0.0,0.0,0.0,0.0,-0.064746,-0.226611,-10.03563,0.0,0.0,0.0,0.0,0.0,0.0,0.0,0.0,0.0
1637022426437461550,2041,1637022426436177046,,0.0,0.0,0.0,0.0,-1.0,0.0,0.0,0.0,0.0,0.0,0.0,0.0,0.0,0.00872664625997,0.012217304764,0.770562864755,0.0,0.0,0.0,0.0,0.0,0.0,0.0,0.0,0.0,0.32373,0.582714,-9.582408,0.0,0.0,0.0,0.0,0.0,0.0,0.0,0.0,0.0
1637022426456649530,2042,1637022426456374060,,0.0,0.0,0.0,0.0,-1.0,0.0,0.0,0.0,0.0,0.0,0.0,0.0,0.0,0.0200712863979,0.000872664625997,0.869173967493,0.0,0.0,0.0,0.0,0.0,0.0,0.0,0.0,0.0,-0.388476,0.582714,-9.06444,0.0,0.0,0.0,0.0,0.0,0.0,0.0,0.0,0.0
1637022426476498694,2043,1637022426476186840,,0.0,0.0,0.0,0.0,-1.0,0.0,0.0,0.0,0.0,0.0,0.0,0.0,0.0,-0.0418879020479,0.0157079632679,0.878773278379,0.0,0.0,0.0,0.0,0.0,0.0,0.0,0.0,0.0,0.291357,0.0,-9.841392,0.0,0.0,0.0,0.0,0.0,0.0,0.0,0.0,0.0
1637022426496458749,2044,1637022426496230304,,0.0,0.0,0.0,0.0,-1.0,0.0,0.0,0.0,0.0,0.0,0.0,0.0,0.0,0.0226892802759,-0.0366519142919,0.777544181763,0.0,0.0,0.0,0.0,0.0,0.0,0.0,0.0,0.0,0.938817,-0.550341,-10.424106,0.0,0.0,0.0,0.0,0.0,0.0,0.0,0.0,0.0
1637022426516957562,2045,1637022426516275782,,0.0,0.0,0.0,0.0,-1.0,0.0,0.0,0.0,0.0,0.0,0.0,0.0,0.0,-0.0462512251778,0.0253072741539,0.763581547748,0.0,0.0,0.0,0.0,0.0,0.0,0.0,0.0,0.0,-0.356103,0.356103,-9.614781,0.0,0.0,0.0,0.0,0.0,0.0,0.0,0.0,0.0
1637022426536695187,2046,1637022426536239832,,0.0,0.0,0.0,0.0,-1.0,0.0,0.0,0.0,0.0,0.0,0.0,0.0,0.0,0.0331612557879,-0.000872664625997,0.796742803535,0.0,0.0,0.0,0.0,0.0,0.0,0.0,0.0,0.0,0.097119,0.485595,-8.870202,0.0,0.0,0.0,0.0,0.0,0.0,0.0,0.0,0.0
1637022426556602387,2047,1637022426556304813,,0.0,0.0,0.0,0.0,-1.0,0.0,0.0,0.0,0.0,0.0,0.0,0.0,0.0,-0.0165806278939,0.014835298642,0.863937979737,0.0,0.0,0.0,0.0,0.0,0.0,0.0,0.0,0.0,0.356103,0.226611,-9.938511,0.0,0.0,0.0,0.0,0.0,0.0,0.0,0.0,0.0
1637022426576442389,2048,1637022426576172423,,0.0,0.0,0.0,0.0,-1.0,0.0,0.0,0.0,0.0,0.0,0.0,0.0,0.0,0.0296705972839,0.010471975512,0.901462558655,0.0,0.0,0.0,0.0,0.0,0.0,0.0,0.0,0.0,0.582714,0.064746,-10.068003,0.0,0.0,0.0,0.0,0.0,0.0,0.0,0.0,0.0
1637022426596586355,2049,1637022426596113367,,0.0,0.0,0.0,0.0,-1.0,0.0,0.0,0.0,0.0,0.0,0.0,0.0,0.0,-0.00436332312999,-0.0445058959259,0.872664625997,0.0,0.0,0.0,0.0,0.0,0.0,0.0,0.0,0.0,0.0,0.064746,-9.323424,0.0,0.0,0.0,0.0,0.0,0.0,0.0,0.0,0.0
1637022426616502865,2050,1637022426616201388,,0.0,0.0,0.0,0.0,-1.0,0.0,0.0,0.0,0.0,0.0,0.0,0.0,0.0,-0.00349065850399,0.0532325421858,0.750491578358,0.0,0.0,0.0,0.0,0.0,0.0,0.0,0.0,0.0,0.291357,0.226611,-9.873765,0.0,0.0,0.0,0.0,0.0,0.0,0.0,0.0,0.0
1637022426636974929,2051,1637022426636217289,,0.0,0.0,0.0,0.0,-1.0,0.0,0.0,0.0,0.0,0.0,0.0,0.0,0.0,-0.0261799387799,-0.0628318530718,0.767072206252,0.0,0.0,0.0,0.0,0.0,0.0,0.0,0.0,0.0,0.258984,-0.420849,-10.229868,0.0,0.0,0.0,0.0,0.0,0.0,0.0,0.0,0.0
1637022426656389092,2052,1637022426656113236,,0.0,0.0,0.0,0.0,-1.0,0.0,0.0,0.0,0.0,0.0,0.0,0.0,0.0,0.0165806278939,0.0575958653158,0.833394717827,0.0,0.0,0.0,0.0,0.0,0.0,0.0,0.0,0.0,-0.097119,0.97119,-9.323424,0.0,0.0,0.0,0.0,0.0,0.0,0.0,0.0,0.0
1637022426676448387,2053,1637022426676172088,,0.0,0.0,0.0,0.0,-1.0,0.0,0.0,0.0,0.0,0.0,0.0,0.0,0.0,0.0174532925199,-0.00349065850399,0.869173967493,0.0,0.0,0.0,0.0,0.0,0.0,0.0,0.0,0.0,0.161865,0.291357,-9.06444,0.0,0.0,0.0,0.0,0.0,0.0,0.0,0.0,0.0
1637022426696400196,2054,1637022426696127148,,0.0,0.0,0.0,0.0,-1.0,0.0,0.0,0.0,0.0,0.0,0.0,0.0,0.0,0.00436332312999,-0.00349065850399,0.827286065445,0.0,0.0,0.0,0.0,0.0,0.0,0.0,0.0,0.0,0.097119,0.0,-10.35936,0.0,0.0,0.0,0.0,0.0,0.0,0.0,0.0,0.0
1637022426716813820,2055,1637022426716153723,,0.0,0.0,0.0,0.0,-1.0,0.0,0.0,0.0,0.0,0.0,0.0,0.0,0.0,0.00610865238198,0.010471975512,0.778416846389,0.0,0.0,0.0,0.0,0.0,0.0,0.0,0.0,0.0,0.064746,0.226611,-9.485289,0.0,0.0,0.0,0.0,0.0,0.0,0.0,0.0,0.0
1637022426736562783,2056,1637022426736108872,,0.0,0.0,0.0,0.0,-1.0,0.0,0.0,0.0,0.0,0.0,0.0,0.0,0.0,-0.000872664625997,-0.0218166156499,0.74787358448,0.0,0.0,0.0,0.0,0.0,0.0,0.0,0.0,0.0,0.064746,0.032373,-9.032067,0.0,0.0,0.0,0.0,0.0,0.0,0.0,0.0,0.0
1637022426756382345,2057,1637022426756190021,,0.0,0.0,0.0,0.0,-1.0,0.0,0.0,0.0,0.0,0.0,0.0,0.0,0.0,-0.0165806278939,0.00174532925199,0.819432083811,0.0,0.0,0.0,0.0,0.0,0.0,0.0,0.0,0.0,-0.097119,0.485595,-9.420543,0.0,0.0,0.0,0.0,0.0,0.0,0.0,0.0,0.0
1637022426776434027,2058,1637022426776166223,,0.0,0.0,0.0,0.0,-1.0,0.0,0.0,0.0,0.0,0.0,0.0,0.0,0.0,0.0383972435439,0.00436332312999,0.842121364087,0.0,0.0,0.0,0.0,0.0,0.0,0.0,0.0,0.0,-0.129492,0.0,-9.809019,0.0,0.0,0.0,0.0,0.0,0.0,0.0,0.0,0.0
1637022426796670565,2059,1637022426796141274,,0.0,0.0,0.0,0.0,-1.0,0.0,0.0,0.0,0.0,0.0,0.0,0.0,0.0,0.0200712863979,-0.014835298642,0.874409955249,0.0,0.0,0.0,0.0,0.0,0.0,0.0,0.0,0.0,-0.841698,0.291357,-9.355797,0.0,0.0,0.0,0.0,0.0,0.0,0.0,0.0,0.0
1637022426816374135,2060,1637022426816146421,,0.0,0.0,0.0,0.0,-1.0,0.0,0.0,0.0,0.0,0.0,0.0,0.0,0.0,0.0270526034059,-0.0174532925199,0.836885376331,0.0,0.0,0.0,0.0,0.0,0.0,0.0,0.0,0.0,-0.194238,0.097119,-9.485289,0.0,0.0,0.0,0.0,0.0,0.0,0.0,0.0,0.0
1637022426836667283,2061,1637022426836187975,,0.0,0.0,0.0,0.0,-1.0,0.0,0.0,0.0,0.0,0.0,0.0,0.0,0.0,-0.01308996939,0.013962634016,0.769690200129,0.0,0.0,0.0,0.0,0.0,0.0,0.0,0.0,0.0,0.712206,0.226611,-9.906138,0.0,0.0,0.0,0.0,0.0,0.0,0.0,0.0,0.0
1637022426856478314,2062,1637022426856216645,,0.0,0.0,0.0,0.0,-1.0,0.0,0.0,0.0,0.0,0.0,0.0,0.0,0.0,-0.0305432619099,-0.014835298642,0.802851455917,0.0,0.0,0.0,0.0,0.0,0.0,0.0,0.0,0.0,0.129492,0.258984,-9.355797,0.0,0.0,0.0,0.0,0.0,0.0,0.0,0.0,0.0
1637022426876512544,2063,1637022426876201508,,0.0,0.0,0.0,0.0,-1.0,0.0,0.0,0.0,0.0,0.0,0.0,0.0,0.0,0.0253072741539,-0.000872664625997,0.856956662729,0.0,0.0,0.0,0.0,0.0,0.0,0.0,0.0,0.0,-0.291357,0.32373,-9.582408,0.0,0.0,0.0,0.0,0.0,0.0,0.0,0.0,0.0
