%time,field.header.seq,field.header.stamp,field.header.frame_id,field.orientation.x,field.orientation.y,field.orientation.z,field.orientation.w,field.orientation_covariance0,field.orientation_covariance1,field.orientation_covariance2,field.orientation_covariance3,field.orientation_covariance4,field.orientation_covariance5,field.orientation_covariance6,field.orientation_covariance7,field.orientation_covariance8,field.angular_velocity.x,field.angular_velocity.y,field.angular_velocity.z,field.angular_velocity_covariance0,field.angular_velocity_covariance1,field.angular_velocity_covariance2,field.angular_velocity_covariance3,field.angular_velocity_covariance4,field.angular_velocity_covariance5,field.angular_velocity_covariance6,field.angular_velocity_covariance7,field.angular_velocity_covariance8,field.linear_acceleration.x,field.linear_acceleration.y,field.linear_acceleration.z,field.linear_acceleration_covariance0,field.linear_acceleration_covariance1,field.linear_acceleration_covariance2,field.linear_acceleration_covariance3,field.linear_acceleration_covariance4,field.linear_acceleration_covariance5,field.linear_acceleration_covariance6,field.linear_acceleration_covariance7,field.linear_acceleration_covariance8
1636841683915964956,145954,1636841683915548692,,0.0,0.0,0.0,0.0,-1.0,0.0,0.0,0.0,0.0,0.0,0.0,0.0,0.0,-0.00261799387799,0.00174532925199,-0.00349065850399,0.0,0.0,0.0,0.0,0.0,0.0,0.0,0.0,0.0,-0.064746,0.258984,-9.614781,0.0,0.0,0.0,0.0,0.0,0.0,0.0,0.0,0.0
1636841683935501036,145955,1636841683935244389,,0.0,0.0,0.0,0.0,-1.0,0.0,0.0,0.0,0.0,0.0,0.0,0.0,0.0,0.00523598775598,-0.00174532925199,-0.00436332312999,0.0,0.0,0.0,0.0,0.0,0.0,0.0,0.0,0.0,0.097119,0.161865,-9.647154,0.0,0.0,0.0,0.0,0.0,0.0,0.0,0.0,0.0
1636841683956329445,145956,1636841683955944256,,0.0,0.0,0.0,0.0,-1.0,0.0,0.0,0.0,0.0,0.0,0.0,0.0,0.0,0.00349065850399,-0.00349065850399,-0.011344640138,0.0,0.0,0.0,0.0,0.0,0.0,0.0,0.0,0.0,0.161865,0.226611,-9.582408,0.0,0.0,0.0,0.0,0.0,0.0,0.0,0.0,0.0
1636841683975775402,145957,1636841683975254605,,0.0,0.0,0.0,0.0,-1.0,0.0,0.0,0.0,0.0,0.0,0.0,0.0,0.0,0.00436332312999,0.010471975512,-0.00785398163397,0.0,0.0,0.0,0.0,0.0,0.0,0.0,0.0,0.0,0.097119,0.194238,-9.550035,0.0,0.0,0.0,0.0,0.0,0.0,0.0,0.0,0.0
1636841683995419945,145958,1636841683995235217,,0.0,0.0,0.0,0.0,-1.0,0.0,0.0,0.0,0.0,0.0,0.0,0.0,0.0,0.0,0.00610865238198,-0.00959931088597,0.0,0.0,0.0,0.0,0.0,0.0,0.0,0.0,0.0,0.129492,0.226611,-9.614781,0.0,0.0,0.0,0.0,0.0,0.0,0.0,0.0,0.0
1636841684016841287,145959,1636841684015223068,,0.0,0.0,0.0,0.0,-1.0,0.0,0.0,0.0,0.0,0.0,0.0,0.0,0.0,-0.00959931088597,0.01308996939,0.00785398163397,0.0,0.0,0.0,0.0,0.0,0.0,0.0,0.0,0.0,0.291357,0.161865,-9.582408,0.0,0.0,0.0,0.0,0.0,0.0,0.0,0.0,0.0
1636841684035470925,145960,1636841684035237704,,0.0,0.0,0.0,0.0,-1.0,0.0,0.0,0.0,0.0,0.0,0.0,0.0,0.0,0.00349065850399,0.00349065850399,-0.0157079632679,0.0,0.0,0.0,0.0,0.0,0.0,0.0,0.0,0.0,0.129492,0.258984,-9.582408,0.0,0.0,0.0,0.0,0.0,0.0,0.0,0.0,0.0
1636841684055676542,145961,1636841684055522715,,0.0,0.0,0.0,0.0,-1.0,0.0,0.0,0.0,0.0,0.0,0.0,0.0,0.0,0.0,-0.00174532925199,-0.00261799387799,0.0,0.0,0.0,0.0,0.0,0.0,0.0,0.0,0.0,-0.097119,0.194238,-9.614781,0.0,0.0,0.0,0.0,0.0,0.0,0.0,0.0,0.0
1636841684075970326,145962,1636841684075619054,,0.0,0.0,0.0,0.0,-1.0,0.0,0.0,0.0,0.0,0.0,0.0,0.0,0.0,0.00610865238198,0.00785398163397,-0.00785398163397,0.0,0.0,0.0,0.0,0.0,0.0,0.0,0.0,0.0,0.161865,0.097119,-9.614781,0.0,0.0,0.0,0.0,0.0,0.0,0.0,0.0,0.0
1636841684095408403,145963,1636841684095239573,,0.0,0.0,0.0,0.0,-1.0,0.0,0.0,0.0,0.0,0.0,0.0,0.0,0.0,-0.00698131700798,0.0,-0.00523598775598,0.0,0.0,0.0,0.0,0.0,0.0,0.0,0.0,0.0,0.129492,0.194238,-9.582408,0.0,0.0,0.0,0.0,0.0,0.0,0.0,0.0,0.0
1636841684115419751,145964,1636841684115204639,,0.0,0.0,0.0,0.0,-1.0,0.0,0.0,0.0,0.0,0.0,0.0,0.0,0.0,-0.00610865238198,0.00349065850399,-0.00698131700798,0.0,0.0,0.0,0.0,0.0,0.0,0.0,0.0,0.0,0.161865,0.226611,-9.485289,0.0,0.0,0.0,0.0,0.0,0.0,0.0,0.0,0.0
1636841684135671983,145965,1636841684135350900,,0.0,0.0,0.0,0.0,-1.0,0.0,0.0,0.0,0.0,0.0,0.0,0.0,0.0,-0.00174532925199,0.000872664625997,0.000872664625997,0.0,0.0,0.0,0.0,0.0,0.0,0.0,0.0,0.0,0.129492,0.226611,-9.647154,0.0,0.0,0.0,0.0,0.0,0.0,0.0,0.0,0.0
1636841684155965442,145966,1636841684155735532,,0.0,0.0,0.0,0.0,-1.0,0.0,0.0,0.0,0.0,0.0,0.0,0.0,0.0,0.010471975512,0.011344640138,-0.00785398163397,0.0,0.0,0.0,0.0,0.0,0.0,0.0,0.0,0.0,0.097119,0.194238,-9.550035,0.0,0.0,0.0,0.0,0.0,0.0,0.0,0.0,0.0
1636841684175708850,145967,1636841684175207439,,0.0,0.0,0.0,0.0,-1.0,0.0,0.0,0.0,0.0,0.0,0.0,0.0,0.0,0.00174532925199,0.00436332312999,-0.00523598775598,0.0,0.0,0.0,0.0,0.0,0.0,0.0,0.0,0.0,-0.194238,0.161865,-9.582408,0.0,0.0,0.0,0.0,0.0,0.0,0.0,0.0,0.0
1636841684195570005,145968,1636841684195240733,,0.0,0.0,0.0,0.0,-1.0,0.0,0.0,0.0,0.0,0.0,0.0,0.0,0.0,-0.000872664625997,0.011344640138,-0.00610865238198,0.0,0.0,0.0,0.0,0.0,0.0,0.0,0.0,0.0,0.0,0.226611,-9.679527,0.0,0.0,0.0,0.0,0.0,0.0,0.0,0.0,0.0
1636841684215345469,145969,1636841684215191685,,0.0,0.0,0.0,0.0,-1.0,0.0,0.0,0.0,0.0,0.0,0.0,0.0,0.0,0.00349065850399,0.00261799387799,-0.00261799387799,0.0,0.0,0.0,0.0,0.0,0.0,0.0,0.0,0.0,0.226611,0.161865,-9.582408,0.0,0.0,0.0,0.0,0.0,0.0,0.0,0.0,0.0
1636841684235716324,145970,1636841684235327102,,0.0,0.0,0.0,0.0,-1.0,0.0,0.0,0.0,0.0,0.0,0.0,0.0,0.0,0.0,0.010471975512,-0.00523598775598,0.0,0.0,0.0,0.0,0.0,0.0,0.0,0.0,0.0,0.097119,0.258984,-9.776646,0.0,0.0,0.0,0.0,0.0,0.0,0.0,0.0,0.0
1636841684255634669,145971,1636841684255214048,,0.0,0.0,0.0,0.0,-1.0,0.0,0.0,0.0,0.0,0.0,0.0,0.0,0.0,-0.00261799387799,0.00610865238198,-0.00872664625997,0.0,0.0,0.0,0.0,0.0,0.0,0.0,0.0,0.0,0.388476,0.129492,-9.647154,0.0,0.0,0.0,0.0,0.0,0.0,0.0,0.0,0.0
1636841684275608898,145972,1636841684275160791,,0.0,0.0,0.0,0.0,-1.0,0.0,0.0,0.0,0.0,0.0,0.0,0.0,0.0,0.00610865238198,0.013962634016,-0.00785398163397,0.0,0.0,0.0,0.0,0.0,0.0,0.0,0.0,0.0,0.129492,0.226611,-9.582408,0.0,0.0,0.0,0.0,0.0,0.0,0.0,0.0,0.0
1636841684295425749,145973,1636841684295229895,,0.0,0.0,0.0,0.0,-1.0,0.0,0.0,0.0,0.0,0.0,0.0,0.0,0.0,-0.000872664625997,0.00523598775598,-0.011344640138,0.0,0.0,0.0,0.0,0.0,0.0,0.0,0.0,0.0,-0.064746,0.226611,-9.517662,0.0,0.0,0.0,0.0,0.0,0.0,0.0,0.0,0.0
1636841684316199050,145974,1636841684315222164,,0.0,0.0,0.0,0.0,-1.0,0.0,0.0,0.0,0.0,0.0,0.0,0.0,0.0,0.00349065850399,-0.000872664625997,-0.00698131700798,0.0,0.0,0.0,0.0,0.0,0.0,0.0,0.0,0.0,0.064746,0.194238,-9.647154,0.0,0.0,0.0,0.0,0.0,0.0,0.0,0.0,0.0
1636841684335489638,145975,1636841684335191289,,0.0,0.0,0.0,0.0,-1.0,0.0,0.0,0.0,0.0,0.0,0.0,0.0,0.0,-0.00523598775598,-0.00174532925199,-0.000872664625997,0.0,0.0,0.0,0.0,0.0,0.0,0.0,0.0,0.0,0.097119,0.129492,-9.582408,0.0,0.0,0.0,0.0,0.0,0.0,0.0,0.0,0.0
1636841684355511585,145976,1636841684355165102,,0.0,0.0,0.0,0.0,-1.0,0.0,0.0,0.0,0.0,0.0,0.0,0.0,0.0,-0.000872664625997,0.01308996939,0.0,0.0,0.0,0.0,0.0,0.0,0.0,0.0,0.0,0.0,0.0,0.161865,-9.614781,0.0,0.0,0.0,0.0,0.0,0.0,0.0,0.0,0.0
1636841684375658838,145977,1636841684375184906,,0.0,0.0,0.0,0.0,-1.0,0.0,0.0,0.0,0.0,0.0,0.0,0.0,0.0,-0.00610865238198,0.000872664625997,-0.0165806278939,0.0,0.0,0.0,0.0,0.0,0.0,0.0,0.0,0.0,0.0,-0.032373,-9.582408,0.0,0.0,0.0,0.0,0.0,0.0,0.0,0.0,0.0
1636841684395455473,145978,1636841684395202765,,0.0,0.0,0.0,0.0,-1.0,0.0,0.0,0.0,0.0,0.0,0.0,0.0,0.0,0.0,0.00610865238198,-0.00261799387799,0.0,0.0,0.0,0.0,0.0,0.0,0.0,0.0,0.0,0.129492,0.226611,-9.614781,0.0,0.0,0.0,0.0,0.0,0.0,0.0,0.0,0.0
1636841684415619248,145979,1636841684415311294,,0.0,0.0,0.0,0.0,-1.0,0.0,0.0,0.0,0.0,0.0,0.0,0.0,0.0,0.010471975512,0.011344640138,-0.00872664625997,0.0,0.0,0.0,0.0,0.0,0.0,0.0,0.0,0.0,0.097119,0.097119,-9.582408,0.0,0.0,0.0,0.0,0.0,0.0,0.0,0.0,0.0
1636841684435756720,145980,1636841684435285009,,0.0,0.0,0.0,0.0,-1.0,0.0,0.0,0.0,0.0,0.0,0.0,0.0,0.0,0.00436332312999,0.012217304764,-0.0157079632679,0.0,0.0,0.0,0.0,0.0,0.0,0.0,0.0,0.0,0.064746,0.226611,-9.582408,0.0,0.0,0.0,0.0,0.0,0.0,0.0,0.0,0.0
1636841684456331722,145981,1636841684456067423,,0.0,0.0,0.0,0.0,-1.0,0.0,0.0,0.0,0.0,0.0,0.0,0.0,0.0,-0.00872664625997,0.00261799387799,-0.00436332312999,0.0,0.0,0.0,0.0,0.0,0.0,0.0,0.0,0.0,0.064746,0.194238,-9.614781,0.0,0.0,0.0,0.0,0.0,0.0,0.0,0.0,0.0
1636841684475903823,145982,1636841684475248691,,0.0,0.0,0.0,0.0,-1.0,0.0,0.0,0.0,0.0,0.0,0.0,0.0,0.0,0.0,0.00174532925199,0.00523598775598,0.0,0.0,0.0,0.0,0.0,0.0,0.0,0.0,0.0,0.097119,0.194238,-9.582408,0.0,0.0,0.0,0.0,0.0,0.0,0.0,0.0,0.0
1636841684495738698,145983,1636841684495327389,,0.0,0.0,0.0,0.0,-1.0,0.0,0.0,0.0,0.0,0.0,0.0,0.0,0.0,-0.00959931088597,0.013962634016,-0.00174532925199,0.0,0.0,0.0,0.0,0.0,0.0,0.0,0.0,0.0,0.097119,0.161865,-9.647154,0.0,0.0,0.0,0.0,0.0,0.0,0.0,0.0,0.0
1636841684515604356,145984,1636841684515421220,,0.0,0.0,0.0,0.0,-1.0,0.0,0.0,0.0,0.0,0.0,0.0,0.0,0.0,0.00785398163397,-0.00349065850399,-0.00698131700798,0.0,0.0,0.0,0.0,0.0,0.0,0.0,0.0,0.0,0.064746,0.32373,-9.517662,0.0,0.0,0.0,0.0,0.0,0.0,0.0,0.0,0.0
1636841684535667223,145985,1636841684535299201,,0.0,0.0,0.0,0.0,-1.0,0.0,0.0,0.0,0.0,0.0,0.0,0.0,0.0,0.00698131700798,0.00261799387799,-0.00698131700798,0.0,0.0,0.0,0.0,0.0,0.0,0.0,0.0,0.0,0.032373,0.226611,-9.582408,0.0,0.0,0.0,0.0,0.0,0.0,0.0,0.0,0.0
1636841684557011577,145986,1636841684556043982,,0.0,0.0,0.0,0.0,-1.0,0.0,0.0,0.0,0.0,0.0,0.0,0.0,0.0,0.00174532925199,0.00174532925199,-0.00174532925199,0.0,0.0,0.0,0.0,0.0,0.0,0.0,0.0,0.0,0.129492,0.161865,-9.582408,0.0,0.0,0.0,0.0,0.0,0.0,0.0,0.0,0.0
1636841684575667515,145987,1636841684575255116,,0.0,0.0,0.0,0.0,-1.0,0.0,0.0,0.0,0.0,0.0,0.0,0.0,0.0,0.00261799387799,0.00436332312999,-0.00436332312999,0.0,0.0,0.0,0.0,0.0,0.0,0.0,0.0,0.0,0.0,0.161865,-9.550035,0.0,0.0,0.0,0.0,0.0,0.0,0.0,0.0,0.0
1636841684595609772,145988,1636841684595251759,,0.0,0.0,0.0,0.0,-1.0,0.0,0.0,0.0,0.0,0.0,0.0,0.0,0.0,-0.00610865238198,0.00785398163397,-0.00959931088597,0.0,0.0,0.0,0.0,0.0,0.0,0.0,0.0,0.0,0.032373,0.226611,-9.582408,0.0,0.0,0.0,0.0,0.0,0.0,0.0,0.0,0.0
1636841684615588808,145989,1636841684615296217,,0.0,0.0,0.0,0.0,-1.0,0.0,0.0,0.0,0.0,0.0,0.0,0.0,0.0,0.01308996939,0.00698131700798,-0.00610865238198,0.0,0.0,0.0,0.0,0.0,0.0,0.0,0.0,0.0,0.194238,0.161865,-9.679527,0.0,0.0,0.0,0.0,0.0,0.0,0.0,0.0,0.0
1636841684635644672,145990,1636841684635319328,,0.0,0.0,0.0,0.0,-1.0,0.0,0.0,0.0,0.0,0.0,0.0,0.0,0.0,0.00174532925199,0.00698131700798,-0.00436332312999,0.0,0.0,0.0,0.0,0.0,0.0,0.0,0.0,0.0,0.129492,0.161865,-9.550035,0.0,0.0,0.0,0.0,0.0,0.0,0.0,0.0,0.0
1636841684656295714,145991,1636841684656108714,,0.0,0.0,0.0,0.0,-1.0,0.0,0.0,0.0,0.0,0.0,0.0,0.0,0.0,0.011344640138,0.00698131700798,0.00523598775598,0.0,0.0,0.0,0.0,0.0,0.0,0.0,0.0,0.0,0.161865,0.32373,-9.647154,0.0,0.0,0.0,0.0,0.0,0.0,0.0,0.0,0.0
1636841684675632363,145992,1636841684675254742,,0.0,0.0,0.0,0.0,-1.0,0.0,0.0,0.0,0.0,0.0,0.0,0.0,0.0,0.00523598775598,0.00523598775598,-0.00261799387799,0.0,0.0,0.0,0.0,0.0,0.0,0.0,0.0,0.0,0.064746,0.258984,-9.614781,0.0,0.0,0.0,0.0,0.0,0.0,0.0,0.0,0.0
1636841684696228981,145993,1636841684695330680,,0.0,0.0,0.0,0.0,-1.0,0.0,0.0,0.0,0.0,0.0,0.0,0.0,0.0,0.00349065850399,0.00872664625997,-0.00610865238198,0.0,0.0,0.0,0.0,0.0,0.0,0.0,0.0,0.0,0.129492,0.194238,-9.614781,0.0,0.0,0.0,0.0,0.0,0.0,0.0,0.0,0.0
1636841684715700194,145994,1636841684715267270,,0.0,0.0,0.0,0.0,-1.0,0.0,0.0,0.0,0.0,0.0,0.0,0.0,0.0,0.00610865238198,0.00785398163397,-0.00872664625997,0.0,0.0,0.0,0.0,0.0,0.0,0.0,0.0,0.0,0.032373,0.064746,-9.550035,0.0,0.0,0.0,0.0,0.0,0.0,0.0,0.0,0.0
1636841684735624882,145995,1636841684735236130,,0.0,0.0,0.0,0.0,-1.0,0.0,0.0,0.0,0.0,0.0,0.0,0.0,0.0,0.0,0.00610865238198,0.00261799387799,0.0,0.0,0.0,0.0,0.0,0.0,0.0,0.0,0.0,0.161865,0.161865,-9.582408,0.0,0.0,0.0,0.0,0.0,0.0,0.0,0.0,0.0
1636841684755943898,145996,1636841684755242070,,0.0,0.0,0.0,0.0,-1.0,0.0,0.0,0.0,0.0,0.0,0.0,0.0,0.0,0.00174532925199,0.00959931088597,-0.00349065850399,0.0,0.0,0.0,0.0,0.0,0.0,0.0,0.0,0.0,0.129492,0.194238,-9.582408,0.0,0.0,0.0,0.0,0.0,0.0,0.0,0.0,0.0
1636841684775661721,145997,1636841684775267674,,0.0,0.0,0.0,0.0,-1.0,0.0,0.0,0.0,0.0,0.0,0.0,0.0,0.0,0.0,0.00436332312999,-0.013962634016,0.0,0.0,0.0,0.0,0.0,0.0,0.0,0.0,0.0,0.064746,0.194238,-9.647154,0.0,0.0,0.0,0.0,0.0,0.0,0.0,0.0,0.0
1636841684795392793,145998,1636841684795171313,,0.0,0.0,0.0,0.0,-1.0,0.0,0.0,0.0,0.0,0.0,0.0,0.0,0.0,0.000872664625997,0.00698131700798,-0.00785398163397,0.0,0.0,0.0,0.0,0.0,0.0,0.0,0.0,0.0,0.097119,0.194238,-9.614781,0.0,0.0,0.0,0.0,0.0,0.0,0.0,0.0,0.0
1636841684815479917,145999,1636841684815211521,,0.0,0.0,0.0,0.0,-1.0,0.0,0.0,0.0,0.0,0.0,0.0,0.0,0.0,-0.011344640138,0.00349065850399,-0.0183259571459,0.0,0.0,0.0,0.0,0.0,0.0,0.0,0.0,0.0,0.064746,0.194238,-9.517662,0.0,0.0,0.0,0.0,0.0,0.0,0.0,0.0,0.0
1636841684835501389,146000,1636841684835149551,,0.0,0.0,0.0,0.0,-1.0,0.0,0.0,0.0,0.0,0.0,0.0,0.0,0.0,0.000872664625997,0.0165806278939,0.000872664625997,0.0,0.0,0.0,0.0,0.0,0.0,0.0,0.0,0.0,-0.032373,0.194238,-9.582408,0.0,0.0,0.0,0.0,0.0,0.0,0.0,0.0,0.0
1636841684855322855,146001,1636841684855176177,,0.0,0.0,0.0,0.0,-1.0,0.0,0.0,0.0,0.0,0.0,0.0,0.0,0.0,-0.00174532925199,0.00174532925199,-0.00785398163397,0.0,0.0,0.0,0.0,0.0,0.0,0.0,0.0,0.0,0.064746,0.194238,-9.582408,0.0,0.0,0.0,0.0,0.0,0.0,0.0,0.0,0.0
1636841684875399794,146002,1636841684875161955,,0.0,0.0,0.0,0.0,-1.0,0.0,0.0,0.0,0.0,0.0,0.0,0.0,0.0,0.00174532925199,0.0,-0.0209439510239,0.0,0.0,0.0,0.0,0.0,0.0,0.0,0.0,0.0,0.0,0.194238,-9.582408,0.0,0.0,0.0,0.0,0.0,0.0,0.0,0.0,0.0
1636841684895311475,146003,1636841684895103726,,0.0,0.0,0.0,0.0,-1.0,0.0,0.0,0.0,0.0,0.0,0.0,0.0,0.0,0.00261799387799,0.00523598775598,-0.00698131700798,0.0,0.0,0.0,0.0,0.0,0.0,0.0,0.0,0.0,0.097119,0.194238,-9.647154,0.0,0.0,0.0,0.0,0.0,0.0,0.0,0.0,0.0
1636841684915327899,146004,1636841684915168399,,0.0,0.0,0.0,0.0,-1.0,0.0,0.0,0.0,0.0,0.0,0.0,0.0,0.0,-0.00610865238198,0.00610865238198,-0.00698131700798,0.0,0.0,0.0,0.0,0.0,0.0,0.0,0.0,0.0,-0.032373,0.226611,-9.647154,0.0,0.0,0.0,0.0,0.0,0.0,0.0,0.0,0.0
1636841684935554762,146005,1636841684935257790,,0.0,0.0,0.0,0.0,-1.0,0.0,0.0,0.0,0.0,0.0,0.0,0.0,0.0,0.0,0.00610865238198,-0.00872664625997,0.0,0.0,0.0,0.0,0.0,0.0,0.0,0.0,0.0,0.0,0.291357,-9.614781,0.0,0.0,0.0,0.0,0.0,0.0,0.0,0.0,0.0
1636841684956102618,146006,1636841684955856815,,0.0,0.0,0.0,0.0,-1.0,0.0,0.0,0.0,0.0,0.0,0.0,0.0,0.0,0.00698131700798,-0.00959931088597,-0.00610865238198,0.0,0.0,0.0,0.0,0.0,0.0,0.0,0.0,0.0,0.097119,0.258984,-9.7119,0.0,0.0,0.0,0.0,0.0,0.0,0.0,0.0,0.0
1636841684975619576,146007,1636841684975192306,,0.0,0.0,0.0,0.0,-1.0,0.0,0.0,0.0,0.0,0.0,0.0,0.0,0.0,0.000872664625997,0.00261799387799,-0.00610865238198,0.0,0.0,0.0,0.0,0.0,0.0,0.0,0.0,0.0,0.064746,0.161865,-9.614781,0.0,0.0,0.0,0.0,0.0,0.0,0.0,0.0,0.0
1636841684995445451,146008,1636841684995237856,,0.0,0.0,0.0,0.0,-1.0,0.0,0.0,0.0,0.0,0.0,0.0,0.0,0.0,0.00349065850399,0.00349065850399,-0.00523598775598,0.0,0.0,0.0,0.0,0.0,0.0,0.0,0.0,0.0,0.097119,0.32373,-9.647154,0.0,0.0,0.0,0.0,0.0,0.0,0.0,0.0,0.0
1636841685015407606,146009,1636841685015237305,,0.0,0.0,0.0,0.0,-1.0,0.0,0.0,0.0,0.0,0.0,0.0,0.0,0.0,0.00349065850399,0.0,-0.00436332312999,0.0,0.0,0.0,0.0,0.0,0.0,0.0,0.0,0.0,0.032373,0.129492,-9.550035,0.0,0.0,0.0,0.0,0.0,0.0,0.0,0.0,0.0
1636841685035680653,146010,1636841685035345828,,0.0,0.0,0.0,0.0,-1.0,0.0,0.0,0.0,0.0,0.0,0.0,0.0,0.0,0.0,0.00261799387799,-0.00261799387799,0.0,0.0,0.0,0.0,0.0,0.0,0.0,0.0,0.0,0.129492,0.226611,-9.614781,0.0,0.0,0.0,0.0,0.0,0.0,0.0,0.0,0.0
1636841685055723767,146011,1636841685055226748,,0.0,0.0,0.0,0.0,-1.0,0.0,0.0,0.0,0.0,0.0,0.0,0.0,0.0,-0.000872664625997,0.00959931088597,-0.00349065850399,0.0,0.0,0.0,0.0,0.0,0.0,0.0,0.0,0.0,0.097119,0.161865,-9.614781,0.0,0.0,0.0,0.0,0.0,0.0,0.0,0.0,0.0
1636841685075495177,146012,1636841685075325479,,0.0,0.0,0.0,0.0,-1.0,0.0,0.0,0.0,0.0,0.0,0.0,0.0,0.0,0.00872664625997,-0.00436332312999,-0.00523598775598,0.0,0.0,0.0,0.0,0.0,0.0,0.0,0.0,0.0,0.097119,0.258984,-9.614781,0.0,0.0,0.0,0.0,0.0,0.0,0.0,0.0,0.0
1636841685095534442,146013,1636841685095263423,,0.0,0.0,0.0,0.0,-1.0,0.0,0.0,0.0,0.0,0.0,0.0,0.0,0.0,-0.000872664625997,0.00523598775598,-0.0165806278939,0.0,0.0,0.0,0.0,0.0,0.0,0.0,0.0,0.0,0.097119,0.226611,-9.614781,0.0,0.0,0.0,0.0,0.0,0.0,0.0,0.0,0.0
1636841685115592647,146014,1636841685115266633,,0.0,0.0,0.0,0.0,-1.0,0.0,0.0,0.0,0.0,0.0,0.0,0.0,0.0,0.00436332312999,0.00610865238198,-0.00959931088597,0.0,0.0,0.0,0.0,0.0,0.0,0.0,0.0,0.0,0.0,0.258984,-9.614781,0.0,0.0,0.0,0.0,0.0,0.0,0.0,0.0,0.0
1636841685135664012,146015,1636841685135298103,,0.0,0.0,0.0,0.0,-1.0,0.0,0.0,0.0,0.0,0.0,0.0,0.0,0.0,-0.00349065850399,0.014835298642,-0.010471975512,0.0,0.0,0.0,0.0,0.0,0.0,0.0,0.0,0.0,0.129492,0.129492,-9.485289,0.0,0.0,0.0,0.0,0.0,0.0,0.0,0.0,0.0
1636841685155609918,146016,1636841685155230935,,0.0,0.0,0.0,0.0,-1.0,0.0,0.0,0.0,0.0,0.0,0.0,0.0,0.0,-0.00523598775598,0.00261799387799,-0.00523598775598,0.0,0.0,0.0,0.0,0.0,0.0,0.0,0.0,0.0,0.064746,0.194238,-9.452916,0.0,0.0,0.0,0.0,0.0,0.0,0.0,0.0,0.0
1636841685175847702,146017,1636841685175304586,,0.0,0.0,0.0,0.0,-1.0,0.0,0.0,0.0,0.0,0.0,0.0,0.0,0.0,0.00610865238198,-0.00261799387799,-0.00698131700798,0.0,0.0,0.0,0.0,0.0,0.0,0.0,0.0,0.0,0.097119,0.258984,-9.679527,0.0,0.0,0.0,0.0,0.0,0.0,0.0,0.0,0.0
1636841685195548440,146018,1636841685195294187,,0.0,0.0,0.0,0.0,-1.0,0.0,0.0,0.0,0.0,0.0,0.0,0.0,0.0,-0.00261799387799,0.00174532925199,0.00436332312999,0.0,0.0,0.0,0.0,0.0,0.0,0.0,0.0,0.0,0.161865,0.194238,-9.647154,0.0,0.0,0.0,0.0,0.0,0.0,0.0,0.0,0.0
1636841685217109933,146019,1636841685216695234,,0.0,0.0,0.0,0.0,-1.0,0.0,0.0,0.0,0.0,0.0,0.0,0.0,0.0,-0.00261799387799,0.00436332312999,-0.00436332312999,0.0,0.0,0.0,0.0,0.0,0.0,0.0,0.0,0.0,0.064746,0.194238,-9.614781,0.0,0.0,0.0,0.0,0.0,0.0,0.0,0.0,0.0
1636841685235602659,146020,1636841685235273579,,0.0,0.0,0.0,0.0,-1.0,0.0,0.0,0.0,0.0,0.0,0.0,0.0,0.0,0.00959931088597,0.0,-0.00610865238198,0.0,0.0,0.0,0.0,0.0,0.0,0.0,0.0,0.0,0.064746,0.258984,-9.582408,0.0,0.0,0.0,0.0,0.0,0.0,0.0,0.0,0.0
1636841685256051275,146021,1636841685255228306,,0.0,0.0,0.0,0.0,-1.0,0.0,0.0,0.0,0.0,0.0,0.0,0.0,0.0,0.0,0.00959931088597,-0.013962634016,0.0,0.0,0.0,0.0,0.0,0.0,0.0,0.0,0.0,0.097119,0.226611,-9.679527,0.0,0.0,0.0,0.0,0.0,0.0,0.0,0.0,0.0
1636841685275717433,146022,1636841685275298127,,0.0,0.0,0.0,0.0,-1.0,0.0,0.0,0.0,0.0,0.0,0.0,0.0,0.0,0.000872664625997,-0.000872664625997,-0.00610865238198,0.0,0.0,0.0,0.0,0.0,0.0,0.0,0.0,0.0,-0.064746,0.226611,-9.614781,0.0,0.0,0.0,0.0,0.0,0.0,0.0,0.0,0.0
1636841685295496321,146023,1636841685295250749,,0.0,0.0,0.0,0.0,-1.0,0.0,0.0,0.0,0.0,0.0,0.0,0.0,0.0,0.0,-0.00261799387799,-0.010471975512,0.0,0.0,0.0,0.0,0.0,0.0,0.0,0.0,0.0,0.097119,0.356103,-9.517662,0.0,0.0,0.0,0.0,0.0,0.0,0.0,0.0,0.0
1636841685315504505,146024,1636841685315242583,,0.0,0.0,0.0,0.0,-1.0,0.0,0.0,0.0,0.0,0.0,0.0,0.0,0.0,-0.00436332312999,-0.00436332312999,0.00261799387799,0.0,0.0,0.0,0.0,0.0,0.0,0.0,0.0,0.0,0.064746,0.161865,-9.485289,0.0,0.0,0.0,0.0,0.0,0.0,0.0,0.0,0.0
1636841685335740440,146025,1636841685335296524,,0.0,0.0,0.0,0.0,-1.0,0.0,0.0,0.0,0.0,0.0,0.0,0.0,0.0,-0.00174532925199,0.0,0.00698131700798,0.0,0.0,0.0,0.0,0.0,0.0,0.0,0.0,0.0,0.129492,0.226611,-9.873765,0.0,0.0,0.0,0.0,0.0,0.0,0.0,0.0,0.0
1636841685355846880,146026,1636841685355232138,,0.0,0.0,0.0,0.0,-1.0,0.0,0.0,0.0,0.0,0.0,0.0,0.0,0.0,0.00785398163397,0.00872664625997,-0.00261799387799,0.0,0.0,0.0,0.0,0.0,0.0,0.0,0.0,0.0,0.097119,0.194238,-9.679527,0.0,0.0,0.0,0.0,0.0,0.0,0.0,0.0,0.0
1636841685375728470,146027,1636841685375482917,,0.0,0.0,0.0,0.0,-1.0,0.0,0.0,0.0,0.0,0.0,0.0,0.0,0.0,0.00261799387799,0.0157079632679,-0.010471975512,0.0,0.0,0.0,0.0,0.0,0.0,0.0,0.0,0.0,0.032373,0.32373,-9.647154,0.0,0.0,0.0,0.0,0.0,0.0,0.0,0.0,0.0
1636841685395559355,146028,1636841685395247197,,0.0,0.0,0.0,0.0,-1.0,0.0,0.0,0.0,0.0,0.0,0.0,0.0,0.0,0.00436332312999,0.000872664625997,-0.014835298642,0.0,0.0,0.0,0.0,0.0,0.0,0.0,0.0,0.0,0.064746,0.194238,-9.582408,0.0,0.0,0.0,0.0,0.0,0.0,0.0,0.0,0.0
1636841685417042140,146029,1636841685416764555,,0.0,0.0,0.0,0.0,-1.0,0.0,0.0,0.0,0.0,0.0,0.0,0.0,0.0,0.00261799387799,0.00349065850399,-0.00698131700798,0.0,0.0,0.0,0.0,0.0,0.0,0.0,0.0,0.0,0.161865,0.226611,-9.744273,0.0,0.0,0.0,0.0,0.0,0.0,0.0,0.0,0.0
1636841685435444539,146030,1636841685435241312,,0.0,0.0,0.0,0.0,-1.0,0.0,0.0,0.0,0.0,0.0,0.0,0.0,0.0,0.00349065850399,0.00785398163397,-0.0157079632679,0.0,0.0,0.0,0.0,0.0,0.0,0.0,0.0,0.0,0.097119,0.129492,-9.7119,0.0,0.0,0.0,0.0,0.0,0.0,0.0,0.0,0.0
1636841685455576721,146031,1636841685455296333,,0.0,0.0,0.0,0.0,-1.0,0.0,0.0,0.0,0.0,0.0,0.0,0.0,0.0,-0.00261799387799,0.00523598775598,0.0,0.0,0.0,0.0,0.0,0.0,0.0,0.0,0.0,0.0,0.032373,0.161865,-9.647154,0.0,0.0,0.0,0.0,0.0,0.0,0.0,0.0,0.0
1636841685475616259,146032,1636841685475253636,,0.0,0.0,0.0,0.0,-1.0,0.0,0.0,0.0,0.0,0.0,0.0,0.0,0.0,-0.00698131700798,0.00174532925199,-0.00523598775598,0.0,0.0,0.0,0.0,0.0,0.0,0.0,0.0,0.0,-0.032373,0.194238,-9.614781,0.0,0.0,0.0,0.0,0.0,0.0,0.0,0.0,0.0
1636841685495585786,146033,1636841685495204998,,0.0,0.0,0.0,0.0,-1.0,0.0,0.0,0.0,0.0,0.0,0.0,0.0,0.0,-0.013962634016,-0.00436332312999,-0.00436332312999,0.0,0.0,0.0,0.0,0.0,0.0,0.0,0.0,0.0,0.097119,0.226611,-9.614781,0.0,0.0,0.0,0.0,0.0,0.0,0.0,0.0,0.0
1636841685515981039,146034,1636841685515343768,,0.0,0.0,0.0,0.0,-1.0,0.0,0.0,0.0,0.0,0.0,0.0,0.0,0.0,-0.010471975512,0.00349065850399,-0.00698131700798,0.0,0.0,0.0,0.0,0.0,0.0,0.0,0.0,0.0,0.032373,0.226611,-9.614781,0.0,0.0,0.0,0.0,0.0,0.0,0.0,0.0,0.0
1636841685535743691,146035,1636841685535276825,,0.0,0.0,0.0,0.0,-1.0,0.0,0.0,0.0,0.0,0.0,0.0,0.0,0.0,0.0,0.00872664625997,0.0,0.0,0.0,0.0,0.0,0.0,0.0,0.0,0.0,0.0,-0.161865,0.194238,-9.582408,0.0,0.0,0.0,0.0,0.0,0.0,0.0,0.0,0.0
1636841685555588526,146036,1636841685555261812,,0.0,0.0,0.0,0.0,-1.0,0.0,0.0,0.0,0.0,0.0,0.0,0.0,0.0,0.00174532925199,0.00174532925199,-0.00872664625997,0.0,0.0,0.0,0.0,0.0,0.0,0.0,0.0,0.0,0.064746,0.194238,-9.614781,0.0,0.0,0.0,0.0,0.0,0.0,0.0,0.0,0.0
1636841685575834070,146037,1636841685575356427,,0.0,0.0,0.0,0.0,-1.0,0.0,0.0,0.0,0.0,0.0,0.0,0.0,0.0,0.00436332312999,0.00610865238198,-0.00436332312999,0.0,0.0,0.0,0.0,0.0,0.0,0.0,0.0,0.0,0.129492,0.194238,-9.679527,0.0,0.0,0.0,0.0,0.0,0.0,0.0,0.0,0.0
1636841685596888715,146038,1636841685596576012,,0.0,0.0,0.0,0.0,-1.0,0.0,0.0,0.0,0.0,0.0,0.0,0.0,0.0,0.00523598775598,0.00959931088597,-0.00872664625997,0.0,0.0,0.0,0.0,0.0,0.0,0.0,0.0,0.0,0.064746,0.226611,-9.582408,0.0,0.0,0.0,0.0,0.0,0.0,0.0,0.0,0.0
1636841685615692917,146039,1636841685615357600,,0.0,0.0,0.0,0.0,-1.0,0.0,0.0,0.0,0.0,0.0,0.0,0.0,0.0,0.00349065850399,0.00785398163397,-0.011344640138,0.0,0.0,0.0,0.0,0.0,0.0,0.0,0.0,0.0,0.032373,0.194238,-9.614781,0.0,0.0,0.0,0.0,0.0,0.0,0.0,0.0,0.0
1636841685635785695,146040,1636841685635419889,,0.0,0.0,0.0,0.0,-1.0,0.0,0.0,0.0,0.0,0.0,0.0,0.0,0.0,-0.00523598775598,-0.00785398163397,-0.01308996939,0.0,0.0,0.0,0.0,0.0,0.0,0.0,0.0,0.0,0.097119,0.258984,-9.614781,0.0,0.0,0.0,0.0,0.0,0.0,0.0,0.0,0.0
1636841685655732964,146041,1636841685655299397,,0.0,0.0,0.0,0.0,-1.0,0.0,0.0,0.0,0.0,0.0,0.0,0.0,0.0,-0.00436332312999,-0.00174532925199,-0.01308996939,0.0,0.0,0.0,0.0,0.0,0.0,0.0,0.0,0.0,0.194238,0.161865,-9.647154,0.0,0.0,0.0,0.0,0.0,0.0,0.0,0.0,0.0
1636841685675947030,146042,1636841685675425888,,0.0,0.0,0.0,0.0,-1.0,0.0,0.0,0.0,0.0,0.0,0.0,0.0,0.0,0.0,-0.00174532925199,-0.00523598775598,0.0,0.0,0.0,0.0,0.0,0.0,0.0,0.0,0.0,0.064746,0.161865,-9.420543,0.0,0.0,0.0,0.0,0.0,0.0,0.0,0.0,0.0
1636841685695733096,146043,1636841685695262979,,0.0,0.0,0.0,0.0,-1.0,0.0,0.0,0.0,0.0,0.0,0.0,0.0,0.0,0.00349065850399,-0.00698131700798,-0.00436332312999,0.0,0.0,0.0,0.0,0.0,0.0,0.0,0.0,0.0,0.129492,0.194238,-9.550035,0.0,0.0,0.0,0.0,0.0,0.0,0.0,0.0,0.0
1636841685716404699,146044,1636841685715236884,,0.0,0.0,0.0,0.0,-1.0,0.0,0.0,0.0,0.0,0.0,0.0,0.0,0.0,-0.00523598775598,-0.00261799387799,0.000872664625997,0.0,0.0,0.0,0.0,0.0,0.0,0.0,0.0,0.0,0.097119,0.194238,-9.550035,0.0,0.0,0.0,0.0,0.0,0.0,0.0,0.0,0.0
1636841685735541272,146045,1636841685735268064,,0.0,0.0,0.0,0.0,-1.0,0.0,0.0,0.0,0.0,0.0,0.0,0.0,0.0,0.00698131700798,0.00349065850399,-0.00698131700798,0.0,0.0,0.0,0.0,0.0,0.0,0.0,0.0,0.0,-0.097119,0.161865,-9.550035,0.0,0.0,0.0,0.0,0.0,0.0,0.0,0.0,0.0
1636841685755553107,146046,1636841685755207054,,0.0,0.0,0.0,0.0,-1.0,0.0,0.0,0.0,0.0,0.0,0.0,0.0,0.0,0.0,-0.00261799387799,-0.00349065850399,0.0,0.0,0.0,0.0,0.0,0.0,0.0,0.0,0.0,0.097119,0.194238,-9.614781,0.0,0.0,0.0,0.0,0.0,0.0,0.0,0.0,0.0
1636841685775364243,146047,1636841685775203982,,0.0,0.0,0.0,0.0,-1.0,0.0,0.0,0.0,0.0,0.0,0.0,0.0,0.0,-0.00785398163397,0.00785398163397,-0.010471975512,0.0,0.0,0.0,0.0,0.0,0.0,0.0,0.0,0.0,0.064746,0.258984,-9.614781,0.0,0.0,0.0,0.0,0.0,0.0,0.0,0.0,0.0
1636841685795336575,146048,1636841685795155979,,0.0,0.0,0.0,0.0,-1.0,0.0,0.0,0.0,0.0,0.0,0.0,0.0,0.0,0.0165806278939,0.00610865238198,0.00174532925199,0.0,0.0,0.0,0.0,0.0,0.0,0.0,0.0,0.0,0.129492,0.226611,-9.517662,0.0,0.0,0.0,0.0,0.0,0.0,0.0,0.0,0.0
1636841685815822190,146049,1636841685815285620,,0.0,0.0,0.0,0.0,-1.0,0.0,0.0,0.0,0.0,0.0,0.0,0.0,0.0,-0.00174532925199,0.00523598775598,-0.00610865238198,0.0,0.0,0.0,0.0,0.0,0.0,0.0,0.0,0.0,0.032373,0.32373,-9.582408,0.0,0.0,0.0,0.0,0.0,0.0,0.0,0.0,0.0
1636841685835707283,146050,1636841685835366987,,0.0,0.0,0.0,0.0,-1.0,0.0,0.0,0.0,0.0,0.0,0.0,0.0,0.0,-0.00261799387799,0.00174532925199,-0.00610865238198,0.0,0.0,0.0,0.0,0.0,0.0,0.0,0.0,0.0,-0.097119,0.258984,-9.582408,0.0,0.0,0.0,0.0,0.0,0.0,0.0,0.0,0.0
1636841685855699365,146051,1636841685855381068,,0.0,0.0,0.0,0.0,-1.0,0.0,0.0,0.0,0.0,0.0,0.0,0.0,0.0,-0.00174532925199,0.00610865238198,0.00523598775598,0.0,0.0,0.0,0.0,0.0,0.0,0.0,0.0,0.0,0.097119,0.129492,-9.614781,0.0,0.0,0.0,0.0,0.0,0.0,0.0,0.0,0.0
1636841685875623172,146052,1636841685875377414,,0.0,0.0,0.0,0.0,-1.0,0.0,0.0,0.0,0.0,0.0,0.0,0.0,0.0,0.000872664625997,0.00698131700798,-0.00698131700798,0.0,0.0,0.0,0.0,0.0,0.0,0.0,0.0,0.0,0.129492,0.194238,-9.647154,0.0,0.0,0.0,0.0,0.0,0.0,0.0,0.0,0.0
1636841685895796490,146053,1636841685895416324,,0.0,0.0,0.0,0.0,-1.0,0.0,0.0,0.0,0.0,0.0,0.0,0.0,0.0,-0.000872664625997,0.00523598775598,-0.00174532925199,0.0,0.0,0.0,0.0,0.0,0.0,0.0,0.0,0.0,0.226611,0.226611,-9.582408,0.0,0.0,0.0,0.0,0.0,0.0,0.0,0.0,0.0
1636841685915839859,146054,1636841685915462628,,0.0,0.0,0.0,0.0,-1.0,0.0,0.0,0.0,0.0,0.0,0.0,0.0,0.0,0.0,0.00959931088597,-0.00872664625997,0.0,0.0,0.0,0.0,0.0,0.0,0.0,0.0,0.0,0.032373,0.194238,-9.582408,0.0,0.0,0.0,0.0,0.0,0.0,0.0,0.0,0.0
1636841685936148535,146055,1636841685935358348,,0.0,0.0,0.0,0.0,-1.0,0.0,0.0,0.0,0.0,0.0,0.0,0.0,0.0,0.00261799387799,0.00349065850399,-0.011344640138,0.0,0.0,0.0,0.0,0.0,0.0,0.0,0.0,0.0,0.0,0.129492,-9.582408,0.0,0.0,0.0,0.0,0.0,0.0,0.0,0.0,0.0
1636841685955850341,146056,1636841685955488198,,0.0,0.0,0.0,0.0,-1.0,0.0,0.0,0.0,0.0,0.0,0.0,0.0,0.0,0.00523598775598,0.00698131700798,-0.0157079632679,0.0,0.0,0.0,0.0,0.0,0.0,0.0,0.0,0.0,0.064746,0.194238,-9.485289,0.0,0.0,0.0,0.0,0.0,0.0,0.0,0.0,0.0
1636841685975554833,146057,1636841685975089007,,0.0,0.0,0.0,0.0,-1.0,0.0,0.0,0.0,0.0,0.0,0.0,0.0,0.0,-0.00349065850399,0.00872664625997,-0.012217304764,0.0,0.0,0.0,0.0,0.0,0.0,0.0,0.0,0.0,0.064746,0.226611,-9.550035,0.0,0.0,0.0,0.0,0.0,0.0,0.0,0.0,0.0
1636841685995154909,146058,1636841685995047780,,0.0,0.0,0.0,0.0,-1.0,0.0,0.0,0.0,0.0,0.0,0.0,0.0,0.0,-0.00436332312999,0.0,0.00349065850399,0.0,0.0,0.0,0.0,0.0,0.0,0.0,0.0,0.0,0.064746,0.161865,-9.7119,0.0,0.0,0.0,0.0,0.0,0.0,0.0,0.0,0.0
1636841686015250848,146059,1636841686015079002,,0.0,0.0,0.0,0.0,-1.0,0.0,0.0,0.0,0.0,0.0,0.0,0.0,0.0,0.00349065850399,0.000872664625997,-0.010471975512,0.0,0.0,0.0,0.0,0.0,0.0,0.0,0.0,0.0,0.064746,0.356103,-9.550035,0.0,0.0,0.0,0.0,0.0,0.0,0.0,0.0,0.0
1636841686035544771,146060,1636841686035070884,,0.0,0.0,0.0,0.0,-1.0,0.0,0.0,0.0,0.0,0.0,0.0,0.0,0.0,-0.00174532925199,0.0,-0.010471975512,0.0,0.0,0.0,0.0,0.0,0.0,0.0,0.0,0.0,0.097119,0.194238,-9.647154,0.0,0.0,0.0,0.0,0.0,0.0,0.0,0.0,0.0
1636841686055213885,146061,1636841686055019410,,0.0,0.0,0.0,0.0,-1.0,0.0,0.0,0.0,0.0,0.0,0.0,0.0,0.0,0.00785398163397,0.000872664625997,-0.00349065850399,0.0,0.0,0.0,0.0,0.0,0.0,0.0,0.0,0.0,0.097119,0.258984,-9.614781,0.0,0.0,0.0,0.0,0.0,0.0,0.0,0.0,0.0
1636841686075433753,146062,1636841686075211020,,0.0,0.0,0.0,0.0,-1.0,0.0,0.0,0.0,0.0,0.0,0.0,0.0,0.0,0.012217304764,0.00174532925199,-0.00698131700798,0.0,0.0,0.0,0.0,0.0,0.0,0.0,0.0,0.0,-0.032373,0.258984,-9.614781,0.0,0.0,0.0,0.0,0.0,0.0,0.0,0.0,0.0
1636841686095303107,146063,1636841686095102015,,0.0,0.0,0.0,0.0,-1.0,0.0,0.0,0.0,0.0,0.0,0.0,0.0,0.0,-0.00785398163397,-0.00436332312999,0.00174532925199,0.0,0.0,0.0,0.0,0.0,0.0,0.0,0.0,0.0,0.097119,0.194238,-9.582408,0.0,0.0,0.0,0.0,0.0,0.0,0.0,0.0,0.0
1636841686115369035,146064,1636841686115231977,,0.0,0.0,0.0,0.0,-1.0,0.0,0.0,0.0,0.0,0.0,0.0,0.0,0.0,-0.00261799387799,0.00698131700798,-0.00698131700798,0.0,0.0,0.0,0.0,0.0,0.0,0.0,0.0,0.0,0.032373,0.226611,-9.550035,0.0,0.0,0.0,0.0,0.0,0.0,0.0,0.0,0.0
1636841686135789478,146065,1636841686135354028,,0.0,0.0,0.0,0.0,-1.0,0.0,0.0,0.0,0.0,0.0,0.0,0.0,0.0,0.00698131700798,0.00523598775598,-0.0183259571459,0.0,0.0,0.0,0.0,0.0,0.0,0.0,0.0,0.0,0.097119,0.226611,-9.485289,0.0,0.0,0.0,0.0,0.0,0.0,0.0,0.0,0.0
1636841686156652058,146066,1636841686155707279,,0.0,0.0,0.0,0.0,-1.0,0.0,0.0,0.0,0.0,0.0,0.0,0.0,0.0,0.0,-0.00610865238198,-0.011344640138,0.0,0.0,0.0,0.0,0.0,0.0,0.0,0.0,0.0,0.064746,0.258984,-9.614781,0.0,0.0,0.0,0.0,0.0,0.0,0.0,0.0,0.0
1636841686176647056,146067,1636841686176097775,,0.0,0.0,0.0,0.0,-1.0,0.0,0.0,0.0,0.0,0.0,0.0,0.0,0.0,0.00174532925199,0.00174532925199,-0.012217304764,0.0,0.0,0.0,0.0,0.0,0.0,0.0,0.0,0.0,0.097119,0.194238,-9.614781,0.0,0.0,0.0,0.0,0.0,0.0,0.0,0.0,0.0
1636841686196752901,146068,1636841686195720182,,0.0,0.0,0.0,0.0,-1.0,0.0,0.0,0.0,0.0,0.0,0.0,0.0,0.0,-0.00261799387799,0.00959931088597,0.00349065850399,0.0,0.0,0.0,0.0,0.0,0.0,0.0,0.0,0.0,0.032373,0.161865,-9.647154,0.0,0.0,0.0,0.0,0.0,0.0,0.0,0.0,0.0
1636841686217470510,146069,1636841686215714714,,0.0,0.0,0.0,0.0,-1.0,0.0,0.0,0.0,0.0,0.0,0.0,0.0,0.0,-0.00261799387799,0.00349065850399,-0.014835298642,0.0,0.0,0.0,0.0,0.0,0.0,0.0,0.0,0.0,0.064746,0.194238,-9.582408,0.0,0.0,0.0,0.0,0.0,0.0,0.0,0.0,0.0
1636841686236652507,146070,1636841686235780526,,0.0,0.0,0.0,0.0,-1.0,0.0,0.0,0.0,0.0,0.0,0.0,0.0,0.0,-0.00261799387799,0.00349065850399,-0.00261799387799,0.0,0.0,0.0,0.0,0.0,0.0,0.0,0.0,0.0,0.064746,0.226611,-9.647154,0.0,0.0,0.0,0.0,0.0,0.0,0.0,0.0,0.0
1636841686255484929,146071,1636841686255208343,,0.0,0.0,0.0,0.0,-1.0,0.0,0.0,0.0,0.0,0.0,0.0,0.0,0.0,-0.00523598775598,0.00436332312999,0.00261799387799,0.0,0.0,0.0,0.0,0.0,0.0,0.0,0.0,0.0,0.032373,0.161865,-9.614781,0.0,0.0,0.0,0.0,0.0,0.0,0.0,0.0,0.0
1636841686275690409,146072,1636841686275366576,,0.0,0.0,0.0,0.0,-1.0,0.0,0.0,0.0,0.0,0.0,0.0,0.0,0.0,-0.00349065850399,0.00349065850399,-0.00785398163397,0.0,0.0,0.0,0.0,0.0,0.0,0.0,0.0,0.0,0.097119,0.194238,-9.679527,0.0,0.0,0.0,0.0,0.0,0.0,0.0,0.0,0.0
1636841686295588150,146073,1636841686295163736,,0.0,0.0,0.0,0.0,-1.0,0.0,0.0,0.0,0.0,0.0,0.0,0.0,0.0,0.00261799387799,-0.00174532925199,-0.01308996939,0.0,0.0,0.0,0.0,0.0,0.0,0.0,0.0,0.0,0.097119,0.129492,-9.614781,0.0,0.0,0.0,0.0,0.0,0.0,0.0,0.0,0.0
1636841686315370843,146074,1636841686315149366,,0.0,0.0,0.0,0.0,-1.0,0.0,0.0,0.0,0.0,0.0,0.0,0.0,0.0,0.00436332312999,0.00523598775598,-0.00436332312999,0.0,0.0,0.0,0.0,0.0,0.0,0.0,0.0,0.0,0.032373,0.258984,-9.614781,0.0,0.0,0.0,0.0,0.0,0.0,0.0,0.0,0.0
1636841686335694916,146075,1636841686335181741,,0.0,0.0,0.0,0.0,-1.0,0.0,0.0,0.0,0.0,0.0,0.0,0.0,0.0,0.00959931088597,0.00785398163397,0.00349065850399,0.0,0.0,0.0,0.0,0.0,0.0,0.0,0.0,0.0,0.064746,0.194238,-9.744273,0.0,0.0,0.0,0.0,0.0,0.0,0.0,0.0,0.0
1636841686355418905,146076,1636841686355264864,,0.0,0.0,0.0,0.0,-1.0,0.0,0.0,0.0,0.0,0.0,0.0,0.0,0.0,0.00349065850399,0.00261799387799,-0.00698131700798,0.0,0.0,0.0,0.0,0.0,0.0,0.0,0.0,0.0,0.097119,0.161865,-9.679527,0.0,0.0,0.0,0.0,0.0,0.0,0.0,0.0,0.0
1636841686375460620,146077,1636841686375210420,,0.0,0.0,0.0,0.0,-1.0,0.0,0.0,0.0,0.0,0.0,0.0,0.0,0.0,-0.00872664625997,0.00698131700798,-0.00785398163397,0.0,0.0,0.0,0.0,0.0,0.0,0.0,0.0,0.0,0.0,0.194238,-9.647154,0.0,0.0,0.0,0.0,0.0,0.0,0.0,0.0,0.0
1636841686395514605,146078,1636841686395232368,,0.0,0.0,0.0,0.0,-1.0,0.0,0.0,0.0,0.0,0.0,0.0,0.0,0.0,-0.00872664625997,0.00436332312999,-0.00174532925199,0.0,0.0,0.0,0.0,0.0,0.0,0.0,0.0,0.0,0.032373,0.161865,-9.614781,0.0,0.0,0.0,0.0,0.0,0.0,0.0,0.0,0.0
1636841686415397748,146079,1636841686415225186,,0.0,0.0,0.0,0.0,-1.0,0.0,0.0,0.0,0.0,0.0,0.0,0.0,0.0,0.010471975512,0.00698131700798,0.0,0.0,0.0,0.0,0.0,0.0,0.0,0.0,0.0,0.0,0.032373,0.129492,-9.582408,0.0,0.0,0.0,0.0,0.0,0.0,0.0,0.0,0.0
1636841686436008650,146080,1636841686435476148,,0.0,0.0,0.0,0.0,-1.0,0.0,0.0,0.0,0.0,0.0,0.0,0.0,0.0,0.000872664625997,0.0,0.0,0.0,0.0,0.0,0.0,0.0,0.0,0.0,0.0,0.0,0.129492,0.194238,-9.550035,0.0,0.0,0.0,0.0,0.0,0.0,0.0,0.0,0.0
1636841686456148732,146081,1636841686455472294,,0.0,0.0,0.0,0.0,-1.0,0.0,0.0,0.0,0.0,0.0,0.0,0.0,0.0,-0.00261799387799,0.00436332312999,-0.00174532925199,0.0,0.0,0.0,0.0,0.0,0.0,0.0,0.0,0.0,0.064746,0.226611,-9.582408,0.0,0.0,0.0,0.0,0.0,0.0,0.0,0.0,0.0
1636841686476019892,146082,1636841686475469028,,0.0,0.0,0.0,0.0,-1.0,0.0,0.0,0.0,0.0,0.0,0.0,0.0,0.0,0.0,0.00349065850399,-0.013962634016,0.0,0.0,0.0,0.0,0.0,0.0,0.0,0.0,0.0,0.129492,0.226611,-9.614781,0.0,0.0,0.0,0.0,0.0,0.0,0.0,0.0,0.0
1636841686496046006,146083,1636841686495440375,,0.0,0.0,0.0,0.0,-1.0,0.0,0.0,0.0,0.0,0.0,0.0,0.0,0.0,0.00174532925199,0.000872664625997,-0.00436332312999,0.0,0.0,0.0,0.0,0.0,0.0,0.0,0.0,0.0,0.097119,0.226611,-9.614781,0.0,0.0,0.0,0.0,0.0,0.0,0.0,0.0,0.0
1636841686516020658,146084,1636841686515462658,,0.0,0.0,0.0,0.0,-1.0,0.0,0.0,0.0,0.0,0.0,0.0,0.0,0.0,0.00610865238198,0.00349065850399,-0.00174532925199,0.0,0.0,0.0,0.0,0.0,0.0,0.0,0.0,0.0,0.0,0.129492,-9.582408,0.0,0.0,0.0,0.0,0.0,0.0,0.0,0.0,0.0
1636841686535743334,146085,1636841686535385462,,0.0,0.0,0.0,0.0,-1.0,0.0,0.0,0.0,0.0,0.0,0.0,0.0,0.0,-0.00174532925199,0.00959931088597,-0.00785398163397,0.0,0.0,0.0,0.0,0.0,0.0,0.0,0.0,0.0,0.064746,0.194238,-9.647154,0.0,0.0,0.0,0.0,0.0,0.0,0.0,0.0,0.0
1636841686555959537,146086,1636841686555583309,,0.0,0.0,0.0,0.0,-1.0,0.0,0.0,0.0,0.0,0.0,0.0,0.0,0.0,0.0,0.00872664625997,0.00698131700798,0.0,0.0,0.0,0.0,0.0,0.0,0.0,0.0,0.0,0.032373,0.194238,-9.614781,0.0,0.0,0.0,0.0,0.0,0.0,0.0,0.0,0.0
1636841686575899767,146087,1636841686575311961,,0.0,0.0,0.0,0.0,-1.0,0.0,0.0,0.0,0.0,0.0,0.0,0.0,0.0,-0.000872664625997,0.00174532925199,-0.00610865238198,0.0,0.0,0.0,0.0,0.0,0.0,0.0,0.0,0.0,0.032373,0.161865,-9.647154,0.0,0.0,0.0,0.0,0.0,0.0,0.0,0.0,0.0
1636841686595284720,146088,1636841686595117652,,0.0,0.0,0.0,0.0,-1.0,0.0,0.0,0.0,0.0,0.0,0.0,0.0,0.0,-0.011344640138,0.00959931088597,-0.011344640138,0.0,0.0,0.0,0.0,0.0,0.0,0.0,0.0,0.0,0.097119,0.097119,-9.614781,0.0,0.0,0.0,0.0,0.0,0.0,0.0,0.0,0.0
1636841686615264086,146089,1636841686615106230,,0.0,0.0,0.0,0.0,-1.0,0.0,0.0,0.0,0.0,0.0,0.0,0.0,0.0,-0.000872664625997,0.00610865238198,-0.000872664625997,0.0,0.0,0.0,0.0,0.0,0.0,0.0,0.0,0.0,0.064746,0.161865,-9.614781,0.0,0.0,0.0,0.0,0.0,0.0,0.0,0.0,0.0
1636841686635257564,146090,1636841686635103533,,0.0,0.0,0.0,0.0,-1.0,0.0,0.0,0.0,0.0,0.0,0.0,0.0,0.0,-0.00436332312999,0.00698131700798,-0.011344640138,0.0,0.0,0.0,0.0,0.0,0.0,0.0,0.0,0.0,0.064746,0.194238,-9.582408,0.0,0.0,0.0,0.0,0.0,0.0,0.0,0.0,0.0
1636841686655340550,146091,1636841686655169981,,0.0,0.0,0.0,0.0,-1.0,0.0,0.0,0.0,0.0,0.0,0.0,0.0,0.0,0.00261799387799,0.00698131700798,-0.00349065850399,0.0,0.0,0.0,0.0,0.0,0.0,0.0,0.0,0.0,0.064746,0.194238,-9.614781,0.0,0.0,0.0,0.0,0.0,0.0,0.0,0.0,0.0
1636841686675230440,146092,1636841686675107978,,0.0,0.0,0.0,0.0,-1.0,0.0,0.0,0.0,0.0,0.0,0.0,0.0,0.0,-0.000872664625997,0.010471975512,-0.00261799387799,0.0,0.0,0.0,0.0,0.0,0.0,0.0,0.0,0.0,0.032373,0.194238,-9.647154,0.0,0.0,0.0,0.0,0.0,0.0,0.0,0.0,0.0
1636841686695317442,146093,1636841686695174379,,0.0,0.0,0.0,0.0,-1.0,0.0,0.0,0.0,0.0,0.0,0.0,0.0,0.0,-0.00523598775598,0.011344640138,-0.012217304764,0.0,0.0,0.0,0.0,0.0,0.0,0.0,0.0,0.0,0.032373,0.226611,-9.614781,0.0,0.0,0.0,0.0,0.0,0.0,0.0,0.0,0.0
1636841686715613461,146094,1636841686715315970,,0.0,0.0,0.0,0.0,-1.0,0.0,0.0,0.0,0.0,0.0,0.0,0.0,0.0,0.000872664625997,0.00698131700798,-0.00174532925199,0.0,0.0,0.0,0.0,0.0,0.0,0.0,0.0,0.0,0.194238,0.161865,-9.647154,0.0,0.0,0.0,0.0,0.0,0.0,0.0,0.0,0.0
1636841686735792640,146095,1636841686735357654,,0.0,0.0,0.0,0.0,-1.0,0.0,0.0,0.0,0.0,0.0,0.0,0.0,0.0,0.011344640138,-0.000872664625997,-0.00523598775598,0.0,0.0,0.0,0.0,0.0,0.0,0.0,0.0,0.0,0.097119,0.161865,-9.679527,0.0,0.0,0.0,0.0,0.0,0.0,0.0,0.0,0.0
1636841686756229551,146096,1636841686755517989,,0.0,0.0,0.0,0.0,-1.0,0.0,0.0,0.0,0.0,0.0,0.0,0.0,0.0,0.00174532925199,0.00872664625997,-0.01308996939,0.0,0.0,0.0,0.0,0.0,0.0,0.0,0.0,0.0,0.129492,0.258984,-9.582408,0.0,0.0,0.0,0.0,0.0,0.0,0.0,0.0,0.0
1636841686775727898,146097,1636841686775326452,,0.0,0.0,0.0,0.0,-1.0,0.0,0.0,0.0,0.0,0.0,0.0,0.0,0.0,0.00436332312999,0.01308996939,0.00261799387799,0.0,0.0,0.0,0.0,0.0,0.0,0.0,0.0,0.0,0.064746,0.258984,-9.582408,0.0,0.0,0.0,0.0,0.0,0.0,0.0,0.0,0.0
1636841686795912536,146098,1636841686795325882,,0.0,0.0,0.0,0.0,-1.0,0.0,0.0,0.0,0.0,0.0,0.0,0.0,0.0,-0.00785398163397,0.0,-0.00959931088597,0.0,0.0,0.0,0.0,0.0,0.0,0.0,0.0,0.0,0.097119,0.097119,-9.582408,0.0,0.0,0.0,0.0,0.0,0.0,0.0,0.0,0.0
1636841686815921716,146099,1636841686815458273,,0.0,0.0,0.0,0.0,-1.0,0.0,0.0,0.0,0.0,0.0,0.0,0.0,0.0,-0.00174532925199,0.00785398163397,0.000872664625997,0.0,0.0,0.0,0.0,0.0,0.0,0.0,0.0,0.0,0.064746,0.291357,-9.582408,0.0,0.0,0.0,0.0,0.0,0.0,0.0,0.0,0.0
1636841686835667375,146100,1636841686835338298,,0.0,0.0,0.0,0.0,-1.0,0.0,0.0,0.0,0.0,0.0,0.0,0.0,0.0,-0.00174532925199,0.0,0.0,0.0,0.0,0.0,0.0,0.0,0.0,0.0,0.0,0.0,0.0,0.161865,-9.582408,0.0,0.0,0.0,0.0,0.0,0.0,0.0,0.0,0.0
1636841686855529016,146101,1636841686855326217,,0.0,0.0,0.0,0.0,-1.0,0.0,0.0,0.0,0.0,0.0,0.0,0.0,0.0,-0.00436332312999,0.012217304764,-0.00349065850399,0.0,0.0,0.0,0.0,0.0,0.0,0.0,0.0,0.0,0.064746,0.194238,-9.582408,0.0,0.0,0.0,0.0,0.0,0.0,0.0,0.0,0.0
1636841686875770158,146102,1636841686875310528,,0.0,0.0,0.0,0.0,-1.0,0.0,0.0,0.0,0.0,0.0,0.0,0.0,0.0,0.00261799387799,0.00436332312999,-0.00785398163397,0.0,0.0,0.0,0.0,0.0,0.0,0.0,0.0,0.0,0.032373,0.129492,-9.582408,0.0,0.0,0.0,0.0,0.0,0.0,0.0,0.0,0.0
1636841686895720430,146103,1636841686895376478,,0.0,0.0,0.0,0.0,-1.0,0.0,0.0,0.0,0.0,0.0,0.0,0.0,0.0,0.00174532925199,0.011344640138,-0.00610865238198,0.0,0.0,0.0,0.0,0.0,0.0,0.0,0.0,0.0,0.161865,0.194238,-9.614781,0.0,0.0,0.0,0.0,0.0,0.0,0.0,0.0,0.0
1636841686915650424,146104,1636841686915315777,,0.0,0.0,0.0,0.0,-1.0,0.0,0.0,0.0,0.0,0.0,0.0,0.0,0.0,0.000872664625997,0.00261799387799,-0.010471975512,0.0,0.0,0.0,0.0,0.0,0.0,0.0,0.0,0.0,0.032373,0.064746,-9.582408,0.0,0.0,0.0,0.0,0.0,0.0,0.0,0.0,0.0
1636841686935672263,146105,1636841686935366665,,0.0,0.0,0.0,0.0,-1.0,0.0,0.0,0.0,0.0,0.0,0.0,0.0,0.0,-0.00523598775598,0.014835298642,-0.00436332312999,0.0,0.0,0.0,0.0,0.0,0.0,0.0,0.0,0.0,0.064746,0.161865,-9.647154,0.0,0.0,0.0,0.0,0.0,0.0,0.0,0.0,0.0
1636841686957097004,146106,1636841686956647692,,0.0,0.0,0.0,0.0,-1.0,0.0,0.0,0.0,0.0,0.0,0.0,0.0,0.0,-0.00785398163397,0.012217304764,-0.00436332312999,0.0,0.0,0.0,0.0,0.0,0.0,0.0,0.0,0.0,0.129492,0.258984,-9.614781,0.0,0.0,0.0,0.0,0.0,0.0,0.0,0.0,0.0
1636841686975979950,146107,1636841686975690232,,0.0,0.0,0.0,0.0,-1.0,0.0,0.0,0.0,0.0,0.0,0.0,0.0,0.0,0.00261799387799,0.00436332312999,-0.00698131700798,0.0,0.0,0.0,0.0,0.0,0.0,0.0,0.0,0.0,0.097119,0.258984,-9.614781,0.0,0.0,0.0,0.0,0.0,0.0,0.0,0.0,0.0
1636841686995615027,146108,1636841686995230934,,0.0,0.0,0.0,0.0,-1.0,0.0,0.0,0.0,0.0,0.0,0.0,0.0,0.0,-0.000872664625997,0.00785398163397,-0.00436332312999,0.0,0.0,0.0,0.0,0.0,0.0,0.0,0.0,0.0,0.129492,0.226611,-9.614781,0.0,0.0,0.0,0.0,0.0,0.0,0.0,0.0,0.0
1636841687015735849,146109,1636841687015361528,,0.0,0.0,0.0,0.0,-1.0,0.0,0.0,0.0,0.0,0.0,0.0,0.0,0.0,-0.00174532925199,0.00698131700798,-0.00349065850399,0.0,0.0,0.0,0.0,0.0,0.0,0.0,0.0,0.0,0.064746,0.032373,-9.550035,0.0,0.0,0.0,0.0,0.0,0.0,0.0,0.0,0.0
1636841687035666164,146110,1636841687035324621,,0.0,0.0,0.0,0.0,-1.0,0.0,0.0,0.0,0.0,0.0,0.0,0.0,0.0,0.0,0.000872664625997,-0.00261799387799,0.0,0.0,0.0,0.0,0.0,0.0,0.0,0.0,0.0,0.0,0.129492,-9.614781,0.0,0.0,0.0,0.0,0.0,0.0,0.0,0.0,0.0
1636841687055625618,146111,1636841687055437690,,0.0,0.0,0.0,0.0,-1.0,0.0,0.0,0.0,0.0,0.0,0.0,0.0,0.0,0.00436332312999,0.00959931088597,-0.00349065850399,0.0,0.0,0.0,0.0,0.0,0.0,0.0,0.0,0.0,0.097119,0.258984,-9.614781,0.0,0.0,0.0,0.0,0.0,0.0,0.0,0.0,0.0
1636841687075471632,146112,1636841687075232684,,0.0,0.0,0.0,0.0,-1.0,0.0,0.0,0.0,0.0,0.0,0.0,0.0,0.0,0.00610865238198,0.00174532925199,-0.00349065850399,0.0,0.0,0.0,0.0,0.0,0.0,0.0,0.0,0.0,0.064746,0.226611,-9.550035,0.0,0.0,0.0,0.0,0.0,0.0,0.0,0.0,0.0
1636841687095318869,146113,1636841687095175196,,0.0,0.0,0.0,0.0,-1.0,0.0,0.0,0.0,0.0,0.0,0.0,0.0,0.0,-0.00261799387799,0.00523598775598,-0.011344640138,0.0,0.0,0.0,0.0,0.0,0.0,0.0,0.0,0.0,0.129492,0.194238,-9.614781,0.0,0.0,0.0,0.0,0.0,0.0,0.0,0.0,0.0
1636841687115427762,146114,1636841687115231070,,0.0,0.0,0.0,0.0,-1.0,0.0,0.0,0.0,0.0,0.0,0.0,0.0,0.0,-0.00261799387799,0.00349065850399,-0.00872664625997,0.0,0.0,0.0,0.0,0.0,0.0,0.0,0.0,0.0,0.129492,0.161865,-9.291051,0.0,0.0,0.0,0.0,0.0,0.0,0.0,0.0,0.0
1636841687135373216,146115,1636841687135134183,,0.0,0.0,0.0,0.0,-1.0,0.0,0.0,0.0,0.0,0.0,0.0,0.0,0.0,0.0,0.00698131700798,-0.012217304764,0.0,0.0,0.0,0.0,0.0,0.0,0.0,0.0,0.0,0.129492,0.258984,-9.647154,0.0,0.0,0.0,0.0,0.0,0.0,0.0,0.0,0.0
1636841687155444359,146116,1636841687155154744,,0.0,0.0,0.0,0.0,-1.0,0.0,0.0,0.0,0.0,0.0,0.0,0.0,0.0,0.00436332312999,-0.00261799387799,-0.00698131700798,0.0,0.0,0.0,0.0,0.0,0.0,0.0,0.0,0.0,0.161865,0.226611,-9.679527,0.0,0.0,0.0,0.0,0.0,0.0,0.0,0.0,0.0
1636841687175371946,146117,1636841687175175018,,0.0,0.0,0.0,0.0,-1.0,0.0,0.0,0.0,0.0,0.0,0.0,0.0,0.0,0.00523598775598,0.00174532925199,-0.00872664625997,0.0,0.0,0.0,0.0,0.0,0.0,0.0,0.0,0.0,0.064746,0.226611,-9.614781,0.0,0.0,0.0,0.0,0.0,0.0,0.0,0.0,0.0
1636841687195314583,146118,1636841687195112483,,0.0,0.0,0.0,0.0,-1.0,0.0,0.0,0.0,0.0,0.0,0.0,0.0,0.0,-0.00959931088597,0.000872664625997,-0.00174532925199,0.0,0.0,0.0,0.0,0.0,0.0,0.0,0.0,0.0,0.097119,0.129492,-9.452916,0.0,0.0,0.0,0.0,0.0,0.0,0.0,0.0,0.0
1636841687215610310,146119,1636841687215254546,,0.0,0.0,0.0,0.0,-1.0,0.0,0.0,0.0,0.0,0.0,0.0,0.0,0.0,0.0,0.0,0.00261799387799,0.0,0.0,0.0,0.0,0.0,0.0,0.0,0.0,0.0,0.161865,0.129492,-9.582408,0.0,0.0,0.0,0.0,0.0,0.0,0.0,0.0,0.0
1636841687236264408,146120,1636841687235695869,,0.0,0.0,0.0,0.0,-1.0,0.0,0.0,0.0,0.0,0.0,0.0,0.0,0.0,0.010471975512,-0.012217304764,0.00174532925199,0.0,0.0,0.0,0.0,0.0,0.0,0.0,0.0,0.0,0.097119,0.226611,-9.614781,0.0,0.0,0.0,0.0,0.0,0.0,0.0,0.0,0.0
1636841687256231967,146121,1636841687255448672,,0.0,0.0,0.0,0.0,-1.0,0.0,0.0,0.0,0.0,0.0,0.0,0.0,0.0,-0.00698131700798,0.00523598775598,0.00698131700798,0.0,0.0,0.0,0.0,0.0,0.0,0.0,0.0,0.0,0.064746,0.161865,-9.614781,0.0,0.0,0.0,0.0,0.0,0.0,0.0,0.0,0.0
1636841687276356441,146122,1636841687275670598,,0.0,0.0,0.0,0.0,-1.0,0.0,0.0,0.0,0.0,0.0,0.0,0.0,0.0,0.00174532925199,-0.00610865238198,-0.011344640138,0.0,0.0,0.0,0.0,0.0,0.0,0.0,0.0,0.0,0.129492,0.226611,-9.647154,0.0,0.0,0.0,0.0,0.0,0.0,0.0,0.0,0.0
1636841687295890938,146123,1636841687295436625,,0.0,0.0,0.0,0.0,-1.0,0.0,0.0,0.0,0.0,0.0,0.0,0.0,0.0,-0.011344640138,0.00523598775598,-0.014835298642,0.0,0.0,0.0,0.0,0.0,0.0,0.0,0.0,0.0,0.129492,0.258984,-9.647154,0.0,0.0,0.0,0.0,0.0,0.0,0.0,0.0,0.0
1636841687316269455,146124,1636841687315505863,,0.0,0.0,0.0,0.0,-1.0,0.0,0.0,0.0,0.0,0.0,0.0,0.0,0.0,0.00610865238198,-0.00174532925199,-0.00349065850399,0.0,0.0,0.0,0.0,0.0,0.0,0.0,0.0,0.0,0.064746,0.194238,-9.517662,0.0,0.0,0.0,0.0,0.0,0.0,0.0,0.0,0.0
1636841687336241942,146125,1636841687335513607,,0.0,0.0,0.0,0.0,-1.0,0.0,0.0,0.0,0.0,0.0,0.0,0.0,0.0,0.00436332312999,0.00436332312999,-0.00436332312999,0.0,0.0,0.0,0.0,0.0,0.0,0.0,0.0,0.0,0.161865,0.194238,-9.647154,0.0,0.0,0.0,0.0,0.0,0.0,0.0,0.0,0.0
1636841687355987858,146126,1636841687355445660,,0.0,0.0,0.0,0.0,-1.0,0.0,0.0,0.0,0.0,0.0,0.0,0.0,0.0,0.00349065850399,0.00436332312999,-0.00610865238198,0.0,0.0,0.0,0.0,0.0,0.0,0.0,0.0,0.0,0.064746,0.097119,-9.452916,0.0,0.0,0.0,0.0,0.0,0.0,0.0,0.0,0.0
1636841687376727285,146127,1636841687375856796,,0.0,0.0,0.0,0.0,-1.0,0.0,0.0,0.0,0.0,0.0,0.0,0.0,0.0,0.0,0.00349065850399,-0.014835298642,0.0,0.0,0.0,0.0,0.0,0.0,0.0,0.0,0.0,0.097119,0.194238,-9.550035,0.0,0.0,0.0,0.0,0.0,0.0,0.0,0.0,0.0
1636841687395500351,146128,1636841687395174476,,0.0,0.0,0.0,0.0,-1.0,0.0,0.0,0.0,0.0,0.0,0.0,0.0,0.0,-0.00436332312999,0.0,-0.00610865238198,0.0,0.0,0.0,0.0,0.0,0.0,0.0,0.0,0.0,0.064746,0.161865,-9.647154,0.0,0.0,0.0,0.0,0.0,0.0,0.0,0.0,0.0
1636841687416274846,146129,1636841687415088771,,0.0,0.0,0.0,0.0,-1.0,0.0,0.0,0.0,0.0,0.0,0.0,0.0,0.0,0.0,0.010471975512,-0.00349065850399,0.0,0.0,0.0,0.0,0.0,0.0,0.0,0.0,0.0,0.194238,0.129492,-9.647154,0.0,0.0,0.0,0.0,0.0,0.0,0.0,0.0,0.0
1636841687435452124,146130,1636841687435106535,,0.0,0.0,0.0,0.0,-1.0,0.0,0.0,0.0,0.0,0.0,0.0,0.0,0.0,0.00436332312999,0.010471975512,-0.013962634016,0.0,0.0,0.0,0.0,0.0,0.0,0.0,0.0,0.0,0.064746,0.32373,-9.485289,0.0,0.0,0.0,0.0,0.0,0.0,0.0,0.0,0.0
1636841687455270806,146131,1636841687455083784,,0.0,0.0,0.0,0.0,-1.0,0.0,0.0,0.0,0.0,0.0,0.0,0.0,0.0,-0.00959931088597,0.00436332312999,-0.00174532925199,0.0,0.0,0.0,0.0,0.0,0.0,0.0,0.0,0.0,0.032373,0.194238,-9.550035,0.0,0.0,0.0,0.0,0.0,0.0,0.0,0.0,0.0
1636841687475280714,146132,1636841687475186640,,0.0,0.0,0.0,0.0,-1.0,0.0,0.0,0.0,0.0,0.0,0.0,0.0,0.0,-0.00523598775598,0.00174532925199,-0.00349065850399,0.0,0.0,0.0,0.0,0.0,0.0,0.0,0.0,0.0,0.097119,0.226611,-9.647154,0.0,0.0,0.0,0.0,0.0,0.0,0.0,0.0,0.0
1636841687495262326,146133,1636841687495109711,,0.0,0.0,0.0,0.0,-1.0,0.0,0.0,0.0,0.0,0.0,0.0,0.0,0.0,-0.011344640138,0.00349065850399,-0.012217304764,0.0,0.0,0.0,0.0,0.0,0.0,0.0,0.0,0.0,0.0,0.194238,-9.582408,0.0,0.0,0.0,0.0,0.0,0.0,0.0,0.0,0.0
1636841687515474326,146134,1636841687515195176,,0.0,0.0,0.0,0.0,-1.0,0.0,0.0,0.0,0.0,0.0,0.0,0.0,0.0,-0.00698131700798,0.014835298642,-0.00261799387799,0.0,0.0,0.0,0.0,0.0,0.0,0.0,0.0,0.0,0.032373,0.258984,-9.647154,0.0,0.0,0.0,0.0,0.0,0.0,0.0,0.0,0.0
1636841687535751013,146135,1636841687535332807,,0.0,0.0,0.0,0.0,-1.0,0.0,0.0,0.0,0.0,0.0,0.0,0.0,0.0,0.00523598775598,0.00872664625997,-0.00349065850399,0.0,0.0,0.0,0.0,0.0,0.0,0.0,0.0,0.0,0.161865,0.226611,-9.614781,0.0,0.0,0.0,0.0,0.0,0.0,0.0,0.0,0.0
1636841687555953307,146136,1636841687555341980,,0.0,0.0,0.0,0.0,-1.0,0.0,0.0,0.0,0.0,0.0,0.0,0.0,0.0,-0.00523598775598,0.00872664625997,-0.01308996939,0.0,0.0,0.0,0.0,0.0,0.0,0.0,0.0,0.0,0.129492,0.32373,-9.647154,0.0,0.0,0.0,0.0,0.0,0.0,0.0,0.0,0.0
1636841687575587188,146137,1636841687575386023,,0.0,0.0,0.0,0.0,-1.0,0.0,0.0,0.0,0.0,0.0,0.0,0.0,0.0,-0.00261799387799,0.00959931088597,-0.014835298642,0.0,0.0,0.0,0.0,0.0,0.0,0.0,0.0,0.0,0.097119,0.258984,-9.679527,0.0,0.0,0.0,0.0,0.0,0.0,0.0,0.0,0.0
1636841687595915074,146138,1636841687595390991,,0.0,0.0,0.0,0.0,-1.0,0.0,0.0,0.0,0.0,0.0,0.0,0.0,0.0,0.0,0.00959931088597,0.00261799387799,0.0,0.0,0.0,0.0,0.0,0.0,0.0,0.0,0.0,0.064746,0.194238,-9.647154,0.0,0.0,0.0,0.0,0.0,0.0,0.0,0.0,0.0
1636841687615598459,146139,1636841687615382506,,0.0,0.0,0.0,0.0,-1.0,0.0,0.0,0.0,0.0,0.0,0.0,0.0,0.0,-0.00785398163397,0.00872664625997,-0.01308996939,0.0,0.0,0.0,0.0,0.0,0.0,0.0,0.0,0.0,0.032373,0.129492,-9.647154,0.0,0.0,0.0,0.0,0.0,0.0,0.0,0.0,0.0
1636841687636021192,146140,1636841687635469279,,0.0,0.0,0.0,0.0,-1.0,0.0,0.0,0.0,0.0,0.0,0.0,0.0,0.0,0.00261799387799,0.0,-0.00785398163397,0.0,0.0,0.0,0.0,0.0,0.0,0.0,0.0,0.0,0.097119,0.129492,-9.614781,0.0,0.0,0.0,0.0,0.0,0.0,0.0,0.0,0.0
1636841687655657552,146141,1636841687655395887,,0.0,0.0,0.0,0.0,-1.0,0.0,0.0,0.0,0.0,0.0,0.0,0.0,0.0,0.0,0.012217304764,-0.01308996939,0.0,0.0,0.0,0.0,0.0,0.0,0.0,0.0,0.0,0.129492,0.194238,-9.550035,0.0,0.0,0.0,0.0,0.0,0.0,0.0,0.0,0.0
1636841687675952991,146142,1636841687675376322,,0.0,0.0,0.0,0.0,-1.0,0.0,0.0,0.0,0.0,0.0,0.0,0.0,0.0,-0.00261799387799,0.00349065850399,-0.01308996939,0.0,0.0,0.0,0.0,0.0,0.0,0.0,0.0,0.0,0.032373,0.161865,-9.582408,0.0,0.0,0.0,0.0,0.0,0.0,0.0,0.0,0.0
1636841687695862448,146143,1636841687695391339,,0.0,0.0,0.0,0.0,-1.0,0.0,0.0,0.0,0.0,0.0,0.0,0.0,0.0,-0.00261799387799,-0.00174532925199,0.000872664625997,0.0,0.0,0.0,0.0,0.0,0.0,0.0,0.0,0.0,0.129492,0.226611,-9.614781,0.0,0.0,0.0,0.0,0.0,0.0,0.0,0.0,0.0
1636841687715633134,146144,1636841687715434223,,0.0,0.0,0.0,0.0,-1.0,0.0,0.0,0.0,0.0,0.0,0.0,0.0,0.0,0.000872664625997,0.00698131700798,-0.012217304764,0.0,0.0,0.0,0.0,0.0,0.0,0.0,0.0,0.0,0.097119,0.194238,-9.614781,0.0,0.0,0.0,0.0,0.0,0.0,0.0,0.0,0.0
1636841687735808391,146145,1636841687735357758,,0.0,0.0,0.0,0.0,-1.0,0.0,0.0,0.0,0.0,0.0,0.0,0.0,0.0,-0.000872664625997,0.00523598775598,-0.00698131700798,0.0,0.0,0.0,0.0,0.0,0.0,0.0,0.0,0.0,0.097119,0.258984,-9.550035,0.0,0.0,0.0,0.0,0.0,0.0,0.0,0.0,0.0
1636841687756704788,146146,1636841687755599719,,0.0,0.0,0.0,0.0,-1.0,0.0,0.0,0.0,0.0,0.0,0.0,0.0,0.0,0.00523598775598,0.00872664625997,-0.00523598775598,0.0,0.0,0.0,0.0,0.0,0.0,0.0,0.0,0.0,0.097119,0.194238,-9.550035,0.0,0.0,0.0,0.0,0.0,0.0,0.0,0.0,0.0
1636841687775817916,146147,1636841687775363453,,0.0,0.0,0.0,0.0,-1.0,0.0,0.0,0.0,0.0,0.0,0.0,0.0,0.0,0.00523598775598,0.00610865238198,-0.00523598775598,0.0,0.0,0.0,0.0,0.0,0.0,0.0,0.0,0.0,0.032373,0.226611,-9.582408,0.0,0.0,0.0,0.0,0.0,0.0,0.0,0.0,0.0
1636841687795902139,146148,1636841687795370070,,0.0,0.0,0.0,0.0,-1.0,0.0,0.0,0.0,0.0,0.0,0.0,0.0,0.0,0.000872664625997,0.00174532925199,-0.00610865238198,0.0,0.0,0.0,0.0,0.0,0.0,0.0,0.0,0.0,0.129492,0.194238,-9.614781,0.0,0.0,0.0,0.0,0.0,0.0,0.0,0.0,0.0
1636841687815844384,146149,1636841687815333043,,0.0,0.0,0.0,0.0,-1.0,0.0,0.0,0.0,0.0,0.0,0.0,0.0,0.0,-0.00349065850399,0.00698131700798,-0.00698131700798,0.0,0.0,0.0,0.0,0.0,0.0,0.0,0.0,0.0,0.097119,0.291357,-9.582408,0.0,0.0,0.0,0.0,0.0,0.0,0.0,0.0,0.0
1636841687835595418,146150,1636841687835389161,,0.0,0.0,0.0,0.0,-1.0,0.0,0.0,0.0,0.0,0.0,0.0,0.0,0.0,-0.00261799387799,0.00349065850399,-0.00872664625997,0.0,0.0,0.0,0.0,0.0,0.0,0.0,0.0,0.0,0.161865,0.194238,-9.517662,0.0,0.0,0.0,0.0,0.0,0.0,0.0,0.0,0.0
1636841687855984979,146151,1636841687855400564,,0.0,0.0,0.0,0.0,-1.0,0.0,0.0,0.0,0.0,0.0,0.0,0.0,0.0,0.00436332312999,0.00959931088597,-0.00610865238198,0.0,0.0,0.0,0.0,0.0,0.0,0.0,0.0,0.0,0.064746,0.194238,-9.647154,0.0,0.0,0.0,0.0,0.0,0.0,0.0,0.0,0.0
1636841687875947978,146152,1636841687875362784,,0.0,0.0,0.0,0.0,-1.0,0.0,0.0,0.0,0.0,0.0,0.0,0.0,0.0,0.00698131700798,-0.00261799387799,-0.012217304764,0.0,0.0,0.0,0.0,0.0,0.0,0.0,0.0,0.0,0.097119,0.194238,-9.679527,0.0,0.0,0.0,0.0,0.0,0.0,0.0,0.0,0.0
1636841687895569632,146153,1636841687895387825,,0.0,0.0,0.0,0.0,-1.0,0.0,0.0,0.0,0.0,0.0,0.0,0.0,0.0,0.00436332312999,0.00349065850399,-0.000872664625997,0.0,0.0,0.0,0.0,0.0,0.0,0.0,0.0,0.0,0.129492,0.194238,-9.582408,0.0,0.0,0.0,0.0,0.0,0.0,0.0,0.0,0.0
1636841687916669126,146154,1636841687916424338,,0.0,0.0,0.0,0.0,-1.0,0.0,0.0,0.0,0.0,0.0,0.0,0.0,0.0,-0.000872664625997,-0.000872664625997,-0.00698131700798,0.0,0.0,0.0,0.0,0.0,0.0,0.0,0.0,0.0,-0.097119,0.226611,-9.582408,0.0,0.0,0.0,0.0,0.0,0.0,0.0,0.0,0.0
1636841687935469616,146155,1636841687935286420,,0.0,0.0,0.0,0.0,-1.0,0.0,0.0,0.0,0.0,0.0,0.0,0.0,0.0,-0.000872664625997,0.00436332312999,-0.00436332312999,0.0,0.0,0.0,0.0,0.0,0.0,0.0,0.0,0.0,0.097119,0.226611,-9.485289,0.0,0.0,0.0,0.0,0.0,0.0,0.0,0.0,0.0
1636841687955410900,146156,1636841687955195867,,0.0,0.0,0.0,0.0,-1.0,0.0,0.0,0.0,0.0,0.0,0.0,0.0,0.0,-0.00174532925199,0.0,-0.00523598775598,0.0,0.0,0.0,0.0,0.0,0.0,0.0,0.0,0.0,0.161865,0.226611,-9.614781,0.0,0.0,0.0,0.0,0.0,0.0,0.0,0.0,0.0
1636841687975535000,146157,1636841687975236506,,0.0,0.0,0.0,0.0,-1.0,0.0,0.0,0.0,0.0,0.0,0.0,0.0,0.0,0.00261799387799,0.00785398163397,-0.012217304764,0.0,0.0,0.0,0.0,0.0,0.0,0.0,0.0,0.0,0.064746,0.226611,-9.614781,0.0,0.0,0.0,0.0,0.0,0.0,0.0,0.0,0.0
1636841687995657392,146158,1636841687995374944,,0.0,0.0,0.0,0.0,-1.0,0.0,0.0,0.0,0.0,0.0,0.0,0.0,0.0,-0.000872664625997,0.00349065850399,-0.00785398163397,0.0,0.0,0.0,0.0,0.0,0.0,0.0,0.0,0.0,0.064746,0.194238,-9.614781,0.0,0.0,0.0,0.0,0.0,0.0,0.0,0.0,0.0
1636841688015517871,146159,1636841688015344589,,0.0,0.0,0.0,0.0,-1.0,0.0,0.0,0.0,0.0,0.0,0.0,0.0,0.0,0.00872664625997,0.00785398163397,-0.00698131700798,0.0,0.0,0.0,0.0,0.0,0.0,0.0,0.0,0.0,0.064746,0.194238,-9.614781,0.0,0.0,0.0,0.0,0.0,0.0,0.0,0.0,0.0
1636841688035668802,146160,1636841688035297876,,0.0,0.0,0.0,0.0,-1.0,0.0,0.0,0.0,0.0,0.0,0.0,0.0,0.0,-0.010471975512,0.00610865238198,-0.010471975512,0.0,0.0,0.0,0.0,0.0,0.0,0.0,0.0,0.0,0.0,0.226611,-9.582408,0.0,0.0,0.0,0.0,0.0,0.0,0.0,0.0,0.0
1636841688055716284,146161,1636841688055280923,,0.0,0.0,0.0,0.0,-1.0,0.0,0.0,0.0,0.0,0.0,0.0,0.0,0.0,0.00959931088597,0.00959931088597,-0.00698131700798,0.0,0.0,0.0,0.0,0.0,0.0,0.0,0.0,0.0,0.032373,0.226611,-9.614781,0.0,0.0,0.0,0.0,0.0,0.0,0.0,0.0,0.0
1636841688075509731,146162,1636841688075333712,,0.0,0.0,0.0,0.0,-1.0,0.0,0.0,0.0,0.0,0.0,0.0,0.0,0.0,-0.000872664625997,0.000872664625997,-0.00959931088597,0.0,0.0,0.0,0.0,0.0,0.0,0.0,0.0,0.0,0.226611,0.129492,-9.614781,0.0,0.0,0.0,0.0,0.0,0.0,0.0,0.0,0.0
1636841688095663076,146163,1636841688095240541,,0.0,0.0,0.0,0.0,-1.0,0.0,0.0,0.0,0.0,0.0,0.0,0.0,0.0,0.0,0.0,-0.01308996939,0.0,0.0,0.0,0.0,0.0,0.0,0.0,0.0,0.0,0.097119,0.161865,-9.647154,0.0,0.0,0.0,0.0,0.0,0.0,0.0,0.0,0.0
1636841688115639447,146164,1636841688115299919,,0.0,0.0,0.0,0.0,-1.0,0.0,0.0,0.0,0.0,0.0,0.0,0.0,0.0,-0.000872664625997,0.010471975512,-0.00349065850399,0.0,0.0,0.0,0.0,0.0,0.0,0.0,0.0,0.0,0.032373,0.194238,-9.614781,0.0,0.0,0.0,0.0,0.0,0.0,0.0,0.0,0.0
1636841688135480084,146165,1636841688135280144,,0.0,0.0,0.0,0.0,-1.0,0.0,0.0,0.0,0.0,0.0,0.0,0.0,0.0,0.0,0.000872664625997,-0.011344640138,0.0,0.0,0.0,0.0,0.0,0.0,0.0,0.0,0.0,0.032373,0.194238,-9.614781,0.0,0.0,0.0,0.0,0.0,0.0,0.0,0.0,0.0
1636841688155508145,146166,1636841688155331208,,0.0,0.0,0.0,0.0,-1.0,0.0,0.0,0.0,0.0,0.0,0.0,0.0,0.0,-0.00174532925199,0.010471975512,-0.00959931088597,0.0,0.0,0.0,0.0,0.0,0.0,0.0,0.0,0.0,0.097119,0.258984,-9.582408,0.0,0.0,0.0,0.0,0.0,0.0,0.0,0.0,0.0
1636841688175539444,146167,1636841688175365635,,0.0,0.0,0.0,0.0,-1.0,0.0,0.0,0.0,0.0,0.0,0.0,0.0,0.0,-0.00698131700798,0.00698131700798,-0.00785398163397,0.0,0.0,0.0,0.0,0.0,0.0,0.0,0.0,0.0,0.097119,0.226611,-9.582408,0.0,0.0,0.0,0.0,0.0,0.0,0.0,0.0,0.0
1636841688195510593,146168,1636841688195243702,,0.0,0.0,0.0,0.0,-1.0,0.0,0.0,0.0,0.0,0.0,0.0,0.0,0.0,0.00698131700798,0.00174532925199,-0.00872664625997,0.0,0.0,0.0,0.0,0.0,0.0,0.0,0.0,0.0,0.161865,0.226611,-9.517662,0.0,0.0,0.0,0.0,0.0,0.0,0.0,0.0,0.0
1636841688215414597,146169,1636841688215244049,,0.0,0.0,0.0,0.0,-1.0,0.0,0.0,0.0,0.0,0.0,0.0,0.0,0.0,0.00349065850399,0.0,-0.00174532925199,0.0,0.0,0.0,0.0,0.0,0.0,0.0,0.0,0.0,-0.032373,0.161865,-9.647154,0.0,0.0,0.0,0.0,0.0,0.0,0.0,0.0,0.0
1636841688235460790,146170,1636841688235285707,,0.0,0.0,0.0,0.0,-1.0,0.0,0.0,0.0,0.0,0.0,0.0,0.0,0.0,0.000872664625997,0.0,0.000872664625997,0.0,0.0,0.0,0.0,0.0,0.0,0.0,0.0,0.0,0.097119,0.129492,-9.550035,0.0,0.0,0.0,0.0,0.0,0.0,0.0,0.0,0.0
1636841688255447660,146171,1636841688255230080,,0.0,0.0,0.0,0.0,-1.0,0.0,0.0,0.0,0.0,0.0,0.0,0.0,0.0,-0.000872664625997,0.00523598775598,-0.011344640138,0.0,0.0,0.0,0.0,0.0,0.0,0.0,0.0,0.0,0.032373,0.226611,-9.647154,0.0,0.0,0.0,0.0,0.0,0.0,0.0,0.0,0.0
1636841688275896483,146172,1636841688275505809,,0.0,0.0,0.0,0.0,-1.0,0.0,0.0,0.0,0.0,0.0,0.0,0.0,0.0,0.00436332312999,0.00261799387799,-0.00174532925199,0.0,0.0,0.0,0.0,0.0,0.0,0.0,0.0,0.0,0.032373,0.258984,-9.614781,0.0,0.0,0.0,0.0,0.0,0.0,0.0,0.0,0.0
1636841688295575740,146173,1636841688295271643,,0.0,0.0,0.0,0.0,-1.0,0.0,0.0,0.0,0.0,0.0,0.0,0.0,0.0,-0.00349065850399,0.00261799387799,-0.00436332312999,0.0,0.0,0.0,0.0,0.0,0.0,0.0,0.0,0.0,0.097119,0.194238,-9.582408,0.0,0.0,0.0,0.0,0.0,0.0,0.0,0.0,0.0
1636841688315446860,146174,1636841688315290844,,0.0,0.0,0.0,0.0,-1.0,0.0,0.0,0.0,0.0,0.0,0.0,0.0,0.0,0.0,0.00785398163397,-0.00436332312999,0.0,0.0,0.0,0.0,0.0,0.0,0.0,0.0,0.0,0.0,0.194238,-9.614781,0.0,0.0,0.0,0.0,0.0,0.0,0.0,0.0,0.0
1636841688335897158,146175,1636841688335482811,,0.0,0.0,0.0,0.0,-1.0,0.0,0.0,0.0,0.0,0.0,0.0,0.0,0.0,-0.00261799387799,-0.00174532925199,0.00785398163397,0.0,0.0,0.0,0.0,0.0,0.0,0.0,0.0,0.0,0.129492,0.194238,-9.517662,0.0,0.0,0.0,0.0,0.0,0.0,0.0,0.0,0.0
1636841688356122163,146176,1636841688355320820,,0.0,0.0,0.0,0.0,-1.0,0.0,0.0,0.0,0.0,0.0,0.0,0.0,0.0,-0.00174532925199,-0.00610865238198,0.0,0.0,0.0,0.0,0.0,0.0,0.0,0.0,0.0,0.0,0.064746,0.226611,-9.485289,0.0,0.0,0.0,0.0,0.0,0.0,0.0,0.0,0.0
1636841688375817454,146177,1636841688375367557,,0.0,0.0,0.0,0.0,-1.0,0.0,0.0,0.0,0.0,0.0,0.0,0.0,0.0,0.00523598775598,-0.00349065850399,-0.00959931088597,0.0,0.0,0.0,0.0,0.0,0.0,0.0,0.0,0.0,0.129492,0.161865,-9.614781,0.0,0.0,0.0,0.0,0.0,0.0,0.0,0.0,0.0
1636841688395488004,146178,1636841688395304247,,0.0,0.0,0.0,0.0,-1.0,0.0,0.0,0.0,0.0,0.0,0.0,0.0,0.0,0.00872664625997,0.00523598775598,-0.00959931088597,0.0,0.0,0.0,0.0,0.0,0.0,0.0,0.0,0.0,0.064746,0.258984,-9.679527,0.0,0.0,0.0,0.0,0.0,0.0,0.0,0.0,0.0
1636841688415750815,146179,1636841688415287535,,0.0,0.0,0.0,0.0,-1.0,0.0,0.0,0.0,0.0,0.0,0.0,0.0,0.0,-0.00174532925199,0.00174532925199,-0.00261799387799,0.0,0.0,0.0,0.0,0.0,0.0,0.0,0.0,0.0,0.064746,0.129492,-9.517662,0.0,0.0,0.0,0.0,0.0,0.0,0.0,0.0,0.0
1636841688435658116,146180,1636841688435271073,,0.0,0.0,0.0,0.0,-1.0,0.0,0.0,0.0,0.0,0.0,0.0,0.0,0.0,0.00698131700798,0.00872664625997,-0.00436332312999,0.0,0.0,0.0,0.0,0.0,0.0,0.0,0.0,0.0,0.097119,0.194238,-9.550035,0.0,0.0,0.0,0.0,0.0,0.0,0.0,0.0,0.0
1636841688455732153,146181,1636841688455260918,,0.0,0.0,0.0,0.0,-1.0,0.0,0.0,0.0,0.0,0.0,0.0,0.0,0.0,-0.000872664625997,0.00436332312999,-0.00174532925199,0.0,0.0,0.0,0.0,0.0,0.0,0.0,0.0,0.0,0.064746,0.226611,-9.582408,0.0,0.0,0.0,0.0,0.0,0.0,0.0,0.0,0.0
1636841688475797219,146182,1636841688475282173,,0.0,0.0,0.0,0.0,-1.0,0.0,0.0,0.0,0.0,0.0,0.0,0.0,0.0,-0.00261799387799,0.011344640138,-0.00610865238198,0.0,0.0,0.0,0.0,0.0,0.0,0.0,0.0,0.0,0.064746,0.0,-9.582408,0.0,0.0,0.0,0.0,0.0,0.0,0.0,0.0,0.0
1636841688495386024,146183,1636841688495240219,,0.0,0.0,0.0,0.0,-1.0,0.0,0.0,0.0,0.0,0.0,0.0,0.0,0.0,0.00610865238198,0.000872664625997,-0.00174532925199,0.0,0.0,0.0,0.0,0.0,0.0,0.0,0.0,0.0,0.064746,0.226611,-9.647154,0.0,0.0,0.0,0.0,0.0,0.0,0.0,0.0,0.0
1636841688515655210,146184,1636841688515369234,,0.0,0.0,0.0,0.0,-1.0,0.0,0.0,0.0,0.0,0.0,0.0,0.0,0.0,0.000872664625997,0.011344640138,-0.000872664625997,0.0,0.0,0.0,0.0,0.0,0.0,0.0,0.0,0.0,0.129492,0.194238,-9.679527,0.0,0.0,0.0,0.0,0.0,0.0,0.0,0.0,0.0
1636841688535634512,146185,1636841688535295107,,0.0,0.0,0.0,0.0,-1.0,0.0,0.0,0.0,0.0,0.0,0.0,0.0,0.0,-0.000872664625997,0.0,-0.00785398163397,0.0,0.0,0.0,0.0,0.0,0.0,0.0,0.0,0.0,0.097119,0.194238,-10.003257,0.0,0.0,0.0,0.0,0.0,0.0,0.0,0.0,0.0
1636841688555856700,146186,1636841688555393846,,0.0,0.0,0.0,0.0,-1.0,0.0,0.0,0.0,0.0,0.0,0.0,0.0,0.0,0.00174532925199,-0.00610865238198,-0.00610865238198,0.0,0.0,0.0,0.0,0.0,0.0,0.0,0.0,0.0,0.032373,0.226611,-9.679527,0.0,0.0,0.0,0.0,0.0,0.0,0.0,0.0,0.0
1636841688576083508,146187,1636841688575387591,,0.0,0.0,0.0,0.0,-1.0,0.0,0.0,0.0,0.0,0.0,0.0,0.0,0.0,0.000872664625997,-0.00174532925199,-0.010471975512,0.0,0.0,0.0,0.0,0.0,0.0,0.0,0.0,0.0,0.032373,0.129492,-9.582408,0.0,0.0,0.0,0.0,0.0,0.0,0.0,0.0,0.0
1636841688595544522,146188,1636841688595323064,,0.0,0.0,0.0,0.0,-1.0,0.0,0.0,0.0,0.0,0.0,0.0,0.0,0.0,-0.00349065850399,0.00436332312999,-0.00959931088597,0.0,0.0,0.0,0.0,0.0,0.0,0.0,0.0,0.0,0.097119,0.194238,-9.582408,0.0,0.0,0.0,0.0,0.0,0.0,0.0,0.0,0.0
1636841688615476161,146189,1636841688615337604,,0.0,0.0,0.0,0.0,-1.0,0.0,0.0,0.0,0.0,0.0,0.0,0.0,0.0,-0.00610865238198,0.0,-0.01308996939,0.0,0.0,0.0,0.0,0.0,0.0,0.0,0.0,0.0,0.097119,0.226611,-9.614781,0.0,0.0,0.0,0.0,0.0,0.0,0.0,0.0,0.0
1636841688635842918,146190,1636841688635637183,,0.0,0.0,0.0,0.0,-1.0,0.0,0.0,0.0,0.0,0.0,0.0,0.0,0.0,0.000872664625997,0.00785398163397,-0.00872664625997,0.0,0.0,0.0,0.0,0.0,0.0,0.0,0.0,0.0,0.064746,0.064746,-9.614781,0.0,0.0,0.0,0.0,0.0,0.0,0.0,0.0,0.0
1636841688655990694,146191,1636841688655373642,,0.0,0.0,0.0,0.0,-1.0,0.0,0.0,0.0,0.0,0.0,0.0,0.0,0.0,0.00436332312999,0.00959931088597,-0.000872664625997,0.0,0.0,0.0,0.0,0.0,0.0,0.0,0.0,0.0,0.129492,0.194238,-9.647154,0.0,0.0,0.0,0.0,0.0,0.0,0.0,0.0,0.0
1636841688676139927,146192,1636841688675338903,,0.0,0.0,0.0,0.0,-1.0,0.0,0.0,0.0,0.0,0.0,0.0,0.0,0.0,-0.00349065850399,0.000872664625997,-0.00785398163397,0.0,0.0,0.0,0.0,0.0,0.0,0.0,0.0,0.0,0.097119,0.161865,-9.582408,0.0,0.0,0.0,0.0,0.0,0.0,0.0,0.0,0.0
1636841688696376015,146193,1636841688695409379,,0.0,0.0,0.0,0.0,-1.0,0.0,0.0,0.0,0.0,0.0,0.0,0.0,0.0,0.00436332312999,0.00436332312999,-0.010471975512,0.0,0.0,0.0,0.0,0.0,0.0,0.0,0.0,0.0,0.032373,0.194238,-9.614781,0.0,0.0,0.0,0.0,0.0,0.0,0.0,0.0,0.0
1636841688715980229,146194,1636841688715429916,,0.0,0.0,0.0,0.0,-1.0,0.0,0.0,0.0,0.0,0.0,0.0,0.0,0.0,0.000872664625997,0.00261799387799,-0.00436332312999,0.0,0.0,0.0,0.0,0.0,0.0,0.0,0.0,0.0,0.129492,0.0,-9.420543,0.0,0.0,0.0,0.0,0.0,0.0,0.0,0.0,0.0
1636841688736100746,146195,1636841688735421677,,0.0,0.0,0.0,0.0,-1.0,0.0,0.0,0.0,0.0,0.0,0.0,0.0,0.0,-0.000872664625997,0.000872664625997,-0.00436332312999,0.0,0.0,0.0,0.0,0.0,0.0,0.0,0.0,0.0,-0.097119,0.194238,-9.647154,0.0,0.0,0.0,0.0,0.0,0.0,0.0,0.0,0.0
1636841688755672355,146196,1636841688755488251,,0.0,0.0,0.0,0.0,-1.0,0.0,0.0,0.0,0.0,0.0,0.0,0.0,0.0,-0.00523598775598,0.011344640138,-0.000872664625997,0.0,0.0,0.0,0.0,0.0,0.0,0.0,0.0,0.0,0.0,0.291357,-9.550035,0.0,0.0,0.0,0.0,0.0,0.0,0.0,0.0,0.0
1636841688775848379,146197,1636841688775308002,,0.0,0.0,0.0,0.0,-1.0,0.0,0.0,0.0,0.0,0.0,0.0,0.0,0.0,-0.00523598775598,0.0,-0.00349065850399,0.0,0.0,0.0,0.0,0.0,0.0,0.0,0.0,0.0,0.032373,0.226611,-9.647154,0.0,0.0,0.0,0.0,0.0,0.0,0.0,0.0,0.0
1636841688795512849,146198,1636841688795188909,,0.0,0.0,0.0,0.0,-1.0,0.0,0.0,0.0,0.0,0.0,0.0,0.0,0.0,0.000872664625997,0.00436332312999,-0.00436332312999,0.0,0.0,0.0,0.0,0.0,0.0,0.0,0.0,0.0,0.161865,0.226611,-9.647154,0.0,0.0,0.0,0.0,0.0,0.0,0.0,0.0,0.0
1636841688815330898,146199,1636841688815136037,,0.0,0.0,0.0,0.0,-1.0,0.0,0.0,0.0,0.0,0.0,0.0,0.0,0.0,-0.00174532925199,0.012217304764,-0.00174532925199,0.0,0.0,0.0,0.0,0.0,0.0,0.0,0.0,0.0,0.0,0.258984,-9.614781,0.0,0.0,0.0,0.0,0.0,0.0,0.0,0.0,0.0
1636841688835666233,146200,1636841688835373098,,0.0,0.0,0.0,0.0,-1.0,0.0,0.0,0.0,0.0,0.0,0.0,0.0,0.0,0.00523598775598,0.00523598775598,-0.00610865238198,0.0,0.0,0.0,0.0,0.0,0.0,0.0,0.0,0.0,0.097119,0.258984,-9.647154,0.0,0.0,0.0,0.0,0.0,0.0,0.0,0.0,0.0
1636841688855437129,146201,1636841688855165826,,0.0,0.0,0.0,0.0,-1.0,0.0,0.0,0.0,0.0,0.0,0.0,0.0,0.0,-0.00523598775598,-0.00174532925199,-0.00261799387799,0.0,0.0,0.0,0.0,0.0,0.0,0.0,0.0,0.0,0.0,0.194238,-9.550035,0.0,0.0,0.0,0.0,0.0,0.0,0.0,0.0,0.0
1636841688875238709,146202,1636841688875097135,,0.0,0.0,0.0,0.0,-1.0,0.0,0.0,0.0,0.0,0.0,0.0,0.0,0.0,-0.00349065850399,0.0209439510239,-0.00610865238198,0.0,0.0,0.0,0.0,0.0,0.0,0.0,0.0,0.0,0.097119,0.0,-9.550035,0.0,0.0,0.0,0.0,0.0,0.0,0.0,0.0,0.0
1636841688895198928,146203,1636841688895067002,,0.0,0.0,0.0,0.0,-1.0,0.0,0.0,0.0,0.0,0.0,0.0,0.0,0.0,-0.00349065850399,0.00523598775598,-0.00698131700798,0.0,0.0,0.0,0.0,0.0,0.0,0.0,0.0,0.0,0.097119,0.194238,-9.582408,0.0,0.0,0.0,0.0,0.0,0.0,0.0,0.0,0.0
1636841688916759102,146204,1636841688915122620,,0.0,0.0,0.0,0.0,-1.0,0.0,0.0,0.0,0.0,0.0,0.0,0.0,0.0,-0.00349065850399,0.00872664625997,-0.011344640138,0.0,0.0,0.0,0.0,0.0,0.0,0.0,0.0,0.0,0.097119,0.226611,-9.582408,0.0,0.0,0.0,0.0,0.0,0.0,0.0,0.0,0.0
1636841688935372277,146205,1636841688935114328,,0.0,0.0,0.0,0.0,-1.0,0.0,0.0,0.0,0.0,0.0,0.0,0.0,0.0,-0.00436332312999,0.0174532925199,-0.014835298642,0.0,0.0,0.0,0.0,0.0,0.0,0.0,0.0,0.0,0.291357,0.226611,-9.550035,0.0,0.0,0.0,0.0,0.0,0.0,0.0,0.0,0.0
1636841688955268134,146206,1636841688955118668,,0.0,0.0,0.0,0.0,-1.0,0.0,0.0,0.0,0.0,0.0,0.0,0.0,0.0,0.00174532925199,0.00698131700798,-0.00610865238198,0.0,0.0,0.0,0.0,0.0,0.0,0.0,0.0,0.0,0.129492,0.194238,-9.517662,0.0,0.0,0.0,0.0,0.0,0.0,0.0,0.0,0.0
1636841688975296234,146207,1636841688975104930,,0.0,0.0,0.0,0.0,-1.0,0.0,0.0,0.0,0.0,0.0,0.0,0.0,0.0,-0.010471975512,0.00174532925199,-0.00610865238198,0.0,0.0,0.0,0.0,0.0,0.0,0.0,0.0,0.0,0.097119,0.226611,-9.582408,0.0,0.0,0.0,0.0,0.0,0.0,0.0,0.0,0.0
1636841688995186754,146208,1636841688995087117,,0.0,0.0,0.0,0.0,-1.0,0.0,0.0,0.0,0.0,0.0,0.0,0.0,0.0,-0.00785398163397,0.00349065850399,-0.012217304764,0.0,0.0,0.0,0.0,0.0,0.0,0.0,0.0,0.0,0.129492,0.194238,-9.582408,0.0,0.0,0.0,0.0,0.0,0.0,0.0,0.0,0.0
1636841689015188694,146209,1636841689015102511,,0.0,0.0,0.0,0.0,-1.0,0.0,0.0,0.0,0.0,0.0,0.0,0.0,0.0,0.00959931088597,0.01308996939,-0.00959931088597,0.0,0.0,0.0,0.0,0.0,0.0,0.0,0.0,0.0,0.161865,0.388476,-9.582408,0.0,0.0,0.0,0.0,0.0,0.0,0.0,0.0,0.0
1636841689035428390,146210,1636841689035125163,,0.0,0.0,0.0,0.0,-1.0,0.0,0.0,0.0,0.0,0.0,0.0,0.0,0.0,0.000872664625997,0.00349065850399,-0.00523598775598,0.0,0.0,0.0,0.0,0.0,0.0,0.0,0.0,0.0,0.129492,0.194238,-9.614781,0.0,0.0,0.0,0.0,0.0,0.0,0.0,0.0,0.0
1636841689055208134,146211,1636841689055090869,,0.0,0.0,0.0,0.0,-1.0,0.0,0.0,0.0,0.0,0.0,0.0,0.0,0.0,0.00610865238198,0.00610865238198,-0.00610865238198,0.0,0.0,0.0,0.0,0.0,0.0,0.0,0.0,0.0,0.032373,0.194238,-9.614781,0.0,0.0,0.0,0.0,0.0,0.0,0.0,0.0,0.0
1636841689075447922,146212,1636841689075109115,,0.0,0.0,0.0,0.0,-1.0,0.0,0.0,0.0,0.0,0.0,0.0,0.0,0.0,-0.00261799387799,0.000872664625997,-0.00436332312999,0.0,0.0,0.0,0.0,0.0,0.0,0.0,0.0,0.0,0.129492,0.194238,-9.517662,0.0,0.0,0.0,0.0,0.0,0.0,0.0,0.0,0.0
1636841689095223105,146213,1636841689095116389,,0.0,0.0,0.0,0.0,-1.0,0.0,0.0,0.0,0.0,0.0,0.0,0.0,0.0,-0.00174532925199,-0.00436332312999,-0.0165806278939,0.0,0.0,0.0,0.0,0.0,0.0,0.0,0.0,0.0,0.097119,0.226611,-9.582408,0.0,0.0,0.0,0.0,0.0,0.0,0.0,0.0,0.0
1636841689115241763,146214,1636841689115144738,,0.0,0.0,0.0,0.0,-1.0,0.0,0.0,0.0,0.0,0.0,0.0,0.0,0.0,0.00610865238198,0.00261799387799,-0.00872664625997,0.0,0.0,0.0,0.0,0.0,0.0,0.0,0.0,0.0,0.0,0.194238,-9.614781,0.0,0.0,0.0,0.0,0.0,0.0,0.0,0.0,0.0
1636841689135367348,146215,1636841689135117696,,0.0,0.0,0.0,0.0,-1.0,0.0,0.0,0.0,0.0,0.0,0.0,0.0,0.0,-0.000872664625997,-0.00436332312999,-0.00872664625997,0.0,0.0,0.0,0.0,0.0,0.0,0.0,0.0,0.0,0.129492,0.129492,-9.679527,0.0,0.0,0.0,0.0,0.0,0.0,0.0,0.0,0.0
1636841689155242543,146216,1636841689155123569,,0.0,0.0,0.0,0.0,-1.0,0.0,0.0,0.0,0.0,0.0,0.0,0.0,0.0,0.00349065850399,0.00174532925199,-0.00523598775598,0.0,0.0,0.0,0.0,0.0,0.0,0.0,0.0,0.0,0.129492,0.226611,-9.582408,0.0,0.0,0.0,0.0,0.0,0.0,0.0,0.0,0.0
1636841689175374738,146217,1636841689175248071,,0.0,0.0,0.0,0.0,-1.0,0.0,0.0,0.0,0.0,0.0,0.0,0.0,0.0,0.00261799387799,0.0,0.000872664625997,0.0,0.0,0.0,0.0,0.0,0.0,0.0,0.0,0.0,0.129492,0.129492,-9.647154,0.0,0.0,0.0,0.0,0.0,0.0,0.0,0.0,0.0
1636841689195370388,146218,1636841689195187368,,0.0,0.0,0.0,0.0,-1.0,0.0,0.0,0.0,0.0,0.0,0.0,0.0,0.0,0.00610865238198,0.000872664625997,0.00610865238198,0.0,0.0,0.0,0.0,0.0,0.0,0.0,0.0,0.0,0.129492,0.194238,-9.550035,0.0,0.0,0.0,0.0,0.0,0.0,0.0,0.0,0.0
1636841689215462426,146219,1636841689215268648,,0.0,0.0,0.0,0.0,-1.0,0.0,0.0,0.0,0.0,0.0,0.0,0.0,0.0,-0.000872664625997,0.00349065850399,0.00785398163397,0.0,0.0,0.0,0.0,0.0,0.0,0.0,0.0,0.0,0.097119,0.129492,-9.582408,0.0,0.0,0.0,0.0,0.0,0.0,0.0,0.0,0.0
1636841689236443332,146220,1636841689235650182,,0.0,0.0,0.0,0.0,-1.0,0.0,0.0,0.0,0.0,0.0,0.0,0.0,0.0,-0.00698131700798,0.00436332312999,-0.00349065850399,0.0,0.0,0.0,0.0,0.0,0.0,0.0,0.0,0.0,0.032373,0.194238,-9.614781,0.0,0.0,0.0,0.0,0.0,0.0,0.0,0.0,0.0
1636841689256562018,146221,1636841689255412560,,0.0,0.0,0.0,0.0,-1.0,0.0,0.0,0.0,0.0,0.0,0.0,0.0,0.0,0.0,0.00523598775598,-0.00610865238198,0.0,0.0,0.0,0.0,0.0,0.0,0.0,0.0,0.0,0.097119,0.258984,-9.452916,0.0,0.0,0.0,0.0,0.0,0.0,0.0,0.0,0.0
1636841689275983991,146222,1636841689275388116,,0.0,0.0,0.0,0.0,-1.0,0.0,0.0,0.0,0.0,0.0,0.0,0.0,0.0,-0.000872664625997,0.00959931088597,-0.00174532925199,0.0,0.0,0.0,0.0,0.0,0.0,0.0,0.0,0.0,0.032373,0.194238,-9.582408,0.0,0.0,0.0,0.0,0.0,0.0,0.0,0.0,0.0
1636841689296441881,146223,1636841689295636307,,0.0,0.0,0.0,0.0,-1.0,0.0,0.0,0.0,0.0,0.0,0.0,0.0,0.0,0.00436332312999,0.010471975512,-0.00872664625997,0.0,0.0,0.0,0.0,0.0,0.0,0.0,0.0,0.0,0.129492,0.161865,-9.679527,0.0,0.0,0.0,0.0,0.0,0.0,0.0,0.0,0.0
1636841689316960616,146224,1636841689315604752,,0.0,0.0,0.0,0.0,-1.0,0.0,0.0,0.0,0.0,0.0,0.0,0.0,0.0,-0.00959931088597,0.00698131700798,-0.00523598775598,0.0,0.0,0.0,0.0,0.0,0.0,0.0,0.0,0.0,0.129492,0.194238,-9.614781,0.0,0.0,0.0,0.0,0.0,0.0,0.0,0.0,0.0
1636841689335797049,146225,1636841689335486233,,0.0,0.0,0.0,0.0,-1.0,0.0,0.0,0.0,0.0,0.0,0.0,0.0,0.0,-0.00261799387799,0.00610865238198,-0.013962634016,0.0,0.0,0.0,0.0,0.0,0.0,0.0,0.0,0.0,0.0,0.226611,-9.647154,0.0,0.0,0.0,0.0,0.0,0.0,0.0,0.0,0.0
1636841689356493686,146226,1636841689355549755,,0.0,0.0,0.0,0.0,-1.0,0.0,0.0,0.0,0.0,0.0,0.0,0.0,0.0,0.010471975512,0.011344640138,-0.000872664625997,0.0,0.0,0.0,0.0,0.0,0.0,0.0,0.0,0.0,0.161865,0.194238,-9.582408,0.0,0.0,0.0,0.0,0.0,0.0,0.0,0.0,0.0
1636841689376250341,146227,1636841689375594506,,0.0,0.0,0.0,0.0,-1.0,0.0,0.0,0.0,0.0,0.0,0.0,0.0,0.0,0.0,-0.00436332312999,-0.0157079632679,0.0,0.0,0.0,0.0,0.0,0.0,0.0,0.0,0.0,0.097119,0.226611,-9.647154,0.0,0.0,0.0,0.0,0.0,0.0,0.0,0.0,0.0
1636841689396257141,146228,1636841689395649259,,0.0,0.0,0.0,0.0,-1.0,0.0,0.0,0.0,0.0,0.0,0.0,0.0,0.0,0.0,0.00610865238198,-0.00436332312999,0.0,0.0,0.0,0.0,0.0,0.0,0.0,0.0,0.0,0.032373,0.194238,-9.550035,0.0,0.0,0.0,0.0,0.0,0.0,0.0,0.0,0.0
1636841689415479170,146229,1636841689415250479,,0.0,0.0,0.0,0.0,-1.0,0.0,0.0,0.0,0.0,0.0,0.0,0.0,0.0,-0.00261799387799,0.0,-0.00698131700798,0.0,0.0,0.0,0.0,0.0,0.0,0.0,0.0,0.0,0.097119,0.194238,-9.744273,0.0,0.0,0.0,0.0,0.0,0.0,0.0,0.0,0.0
1636841689435475363,146230,1636841689435175797,,0.0,0.0,0.0,0.0,-1.0,0.0,0.0,0.0,0.0,0.0,0.0,0.0,0.0,-0.000872664625997,0.00523598775598,-0.00785398163397,0.0,0.0,0.0,0.0,0.0,0.0,0.0,0.0,0.0,-0.064746,0.161865,-9.517662,0.0,0.0,0.0,0.0,0.0,0.0,0.0,0.0,0.0
1636841689455448361,146231,1636841689455150676,,0.0,0.0,0.0,0.0,-1.0,0.0,0.0,0.0,0.0,0.0,0.0,0.0,0.0,-0.00523598775598,0.00785398163397,0.0,0.0,0.0,0.0,0.0,0.0,0.0,0.0,0.0,0.0,0.097119,0.194238,-9.7119,0.0,0.0,0.0,0.0,0.0,0.0,0.0,0.0,0.0
1636841689475180563,146232,1636841689475078822,,0.0,0.0,0.0,0.0,-1.0,0.0,0.0,0.0,0.0,0.0,0.0,0.0,0.0,0.00959931088597,0.00174532925199,-0.011344640138,0.0,0.0,0.0,0.0,0.0,0.0,0.0,0.0,0.0,0.097119,0.226611,-9.647154,0.0,0.0,0.0,0.0,0.0,0.0,0.0,0.0,0.0
1636841689495199817,146233,1636841689495088457,,0.0,0.0,0.0,0.0,-1.0,0.0,0.0,0.0,0.0,0.0,0.0,0.0,0.0,-0.00349065850399,0.00698131700798,0.00261799387799,0.0,0.0,0.0,0.0,0.0,0.0,0.0,0.0,0.0,0.097119,0.129492,-9.582408,0.0,0.0,0.0,0.0,0.0,0.0,0.0,0.0,0.0
1636841689515230450,146234,1636841689515135185,,0.0,0.0,0.0,0.0,-1.0,0.0,0.0,0.0,0.0,0.0,0.0,0.0,0.0,-0.00174532925199,0.00785398163397,-0.00174532925199,0.0,0.0,0.0,0.0,0.0,0.0,0.0,0.0,0.0,0.194238,0.194238,-9.776646,0.0,0.0,0.0,0.0,0.0,0.0,0.0,0.0,0.0
1636841689535623158,146235,1636841689535105452,,0.0,0.0,0.0,0.0,-1.0,0.0,0.0,0.0,0.0,0.0,0.0,0.0,0.0,0.0,0.00174532925199,-0.00959931088597,0.0,0.0,0.0,0.0,0.0,0.0,0.0,0.0,0.0,0.0,0.194238,-9.452916,0.0,0.0,0.0,0.0,0.0,0.0,0.0,0.0,0.0
1636841689555272468,146236,1636841689555179005,,0.0,0.0,0.0,0.0,-1.0,0.0,0.0,0.0,0.0,0.0,0.0,0.0,0.0,-0.00610865238198,-0.00174532925199,-0.010471975512,0.0,0.0,0.0,0.0,0.0,0.0,0.0,0.0,0.0,0.0,0.129492,-9.517662,0.0,0.0,0.0,0.0,0.0,0.0,0.0,0.0,0.0
1636841689575343209,146237,1636841689575172671,,0.0,0.0,0.0,0.0,-1.0,0.0,0.0,0.0,0.0,0.0,0.0,0.0,0.0,0.00261799387799,0.00261799387799,-0.00436332312999,0.0,0.0,0.0,0.0,0.0,0.0,0.0,0.0,0.0,0.032373,0.194238,-9.614781,0.0,0.0,0.0,0.0,0.0,0.0,0.0,0.0,0.0
1636841689595227609,146238,1636841689595090952,,0.0,0.0,0.0,0.0,-1.0,0.0,0.0,0.0,0.0,0.0,0.0,0.0,0.0,0.00436332312999,0.00523598775598,-0.00698131700798,0.0,0.0,0.0,0.0,0.0,0.0,0.0,0.0,0.0,0.129492,0.226611,-9.679527,0.0,0.0,0.0,0.0,0.0,0.0,0.0,0.0,0.0
1636841689616463272,146239,1636841689615115303,,0.0,0.0,0.0,0.0,-1.0,0.0,0.0,0.0,0.0,0.0,0.0,0.0,0.0,-0.00261799387799,0.000872664625997,0.0,0.0,0.0,0.0,0.0,0.0,0.0,0.0,0.0,0.0,0.097119,0.032373,-9.550035,0.0,0.0,0.0,0.0,0.0,0.0,0.0,0.0,0.0
1636841689635653409,146240,1636841689635133737,,0.0,0.0,0.0,0.0,-1.0,0.0,0.0,0.0,0.0,0.0,0.0,0.0,0.0,0.00785398163397,-0.000872664625997,-0.000872664625997,0.0,0.0,0.0,0.0,0.0,0.0,0.0,0.0,0.0,0.032373,0.194238,-9.614781,0.0,0.0,0.0,0.0,0.0,0.0,0.0,0.0,0.0
1636841689655478634,146241,1636841689655233949,,0.0,0.0,0.0,0.0,-1.0,0.0,0.0,0.0,0.0,0.0,0.0,0.0,0.0,0.00174532925199,0.00436332312999,-0.014835298642,0.0,0.0,0.0,0.0,0.0,0.0,0.0,0.0,0.0,0.129492,0.226611,-9.550035,0.0,0.0,0.0,0.0,0.0,0.0,0.0,0.0,0.0
1636841689675479406,146242,1636841689675320553,,0.0,0.0,0.0,0.0,-1.0,0.0,0.0,0.0,0.0,0.0,0.0,0.0,0.0,0.00261799387799,0.00261799387799,-0.011344640138,0.0,0.0,0.0,0.0,0.0,0.0,0.0,0.0,0.0,0.097119,0.097119,-9.517662,0.0,0.0,0.0,0.0,0.0,0.0,0.0,0.0,0.0
1636841689695692491,146243,1636841689695456114,,0.0,0.0,0.0,0.0,-1.0,0.0,0.0,0.0,0.0,0.0,0.0,0.0,0.0,0.000872664625997,0.00698131700798,-0.00174532925199,0.0,0.0,0.0,0.0,0.0,0.0,0.0,0.0,0.0,0.097119,0.161865,-9.550035,0.0,0.0,0.0,0.0,0.0,0.0,0.0,0.0,0.0
1636841689716132706,146244,1636841689715636796,,0.0,0.0,0.0,0.0,-1.0,0.0,0.0,0.0,0.0,0.0,0.0,0.0,0.0,-0.00349065850399,0.00959931088597,0.0,0.0,0.0,0.0,0.0,0.0,0.0,0.0,0.0,0.0,0.064746,0.161865,-9.647154,0.0,0.0,0.0,0.0,0.0,0.0,0.0,0.0,0.0
1636841689737388219,146245,1636841689736142325,,0.0,0.0,0.0,0.0,-1.0,0.0,0.0,0.0,0.0,0.0,0.0,0.0,0.0,-0.00349065850399,0.011344640138,-0.00959931088597,0.0,0.0,0.0,0.0,0.0,0.0,0.0,0.0,0.0,0.129492,0.194238,-9.647154,0.0,0.0,0.0,0.0,0.0,0.0,0.0,0.0,0.0
1636841689757619062,146246,1636841689756042605,,0.0,0.0,0.0,0.0,-1.0,0.0,0.0,0.0,0.0,0.0,0.0,0.0,0.0,0.00523598775598,0.010471975512,-0.000872664625997,0.0,0.0,0.0,0.0,0.0,0.0,0.0,0.0,0.0,0.097119,0.226611,-9.679527,0.0,0.0,0.0,0.0,0.0,0.0,0.0,0.0,0.0
1636841689776748190,146247,1636841689775991362,,0.0,0.0,0.0,0.0,-1.0,0.0,0.0,0.0,0.0,0.0,0.0,0.0,0.0,-0.00349065850399,0.00174532925199,-0.00523598775598,0.0,0.0,0.0,0.0,0.0,0.0,0.0,0.0,0.0,0.097119,0.194238,-9.647154,0.0,0.0,0.0,0.0,0.0,0.0,0.0,0.0,0.0
1636841689797106379,146248,1636841689796571588,,0.0,0.0,0.0,0.0,-1.0,0.0,0.0,0.0,0.0,0.0,0.0,0.0,0.0,0.00261799387799,-0.00610865238198,-0.00785398163397,0.0,0.0,0.0,0.0,0.0,0.0,0.0,0.0,0.0,0.064746,0.097119,-9.744273,0.0,0.0,0.0,0.0,0.0,0.0,0.0,0.0,0.0
1636841689817017503,146249,1636841689815965502,,0.0,0.0,0.0,0.0,-1.0,0.0,0.0,0.0,0.0,0.0,0.0,0.0,0.0,-0.00174532925199,0.00523598775598,0.00261799387799,0.0,0.0,0.0,0.0,0.0,0.0,0.0,0.0,0.0,0.064746,0.258984,-9.614781,0.0,0.0,0.0,0.0,0.0,0.0,0.0,0.0,0.0
1636841689835869524,146250,1636841689835273431,,0.0,0.0,0.0,0.0,-1.0,0.0,0.0,0.0,0.0,0.0,0.0,0.0,0.0,0.0,0.000872664625997,-0.00174532925199,0.0,0.0,0.0,0.0,0.0,0.0,0.0,0.0,0.0,0.097119,0.194238,-9.582408,0.0,0.0,0.0,0.0,0.0,0.0,0.0,0.0,0.0
1636841689855748727,146251,1636841689855280721,,0.0,0.0,0.0,0.0,-1.0,0.0,0.0,0.0,0.0,0.0,0.0,0.0,0.0,0.00261799387799,0.00523598775598,0.00174532925199,0.0,0.0,0.0,0.0,0.0,0.0,0.0,0.0,0.0,0.161865,0.194238,-9.614781,0.0,0.0,0.0,0.0,0.0,0.0,0.0,0.0,0.0
1636841689875392133,146252,1636841689875170810,,0.0,0.0,0.0,0.0,-1.0,0.0,0.0,0.0,0.0,0.0,0.0,0.0,0.0,0.00436332312999,0.00436332312999,0.010471975512,0.0,0.0,0.0,0.0,0.0,0.0,0.0,0.0,0.0,0.064746,0.226611,-9.582408,0.0,0.0,0.0,0.0,0.0,0.0,0.0,0.0,0.0
1636841689895297569,146253,1636841689895188279,,0.0,0.0,0.0,0.0,-1.0,0.0,0.0,0.0,0.0,0.0,0.0,0.0,0.0,-0.00261799387799,-0.00436332312999,-0.00959931088597,0.0,0.0,0.0,0.0,0.0,0.0,0.0,0.0,0.0,0.032373,0.194238,-9.614781,0.0,0.0,0.0,0.0,0.0,0.0,0.0,0.0,0.0
1636841689916719475,146254,1636841689915132351,,0.0,0.0,0.0,0.0,-1.0,0.0,0.0,0.0,0.0,0.0,0.0,0.0,0.0,-0.00872664625997,0.00523598775598,-0.012217304764,0.0,0.0,0.0,0.0,0.0,0.0,0.0,0.0,0.0,0.064746,0.194238,-9.614781,0.0,0.0,0.0,0.0,0.0,0.0,0.0,0.0,0.0
1636841689935263249,146255,1636841689935164128,,0.0,0.0,0.0,0.0,-1.0,0.0,0.0,0.0,0.0,0.0,0.0,0.0,0.0,0.0,0.00785398163397,0.0,0.0,0.0,0.0,0.0,0.0,0.0,0.0,0.0,0.0,0.161865,0.226611,-9.7119,0.0,0.0,0.0,0.0,0.0,0.0,0.0,0.0,0.0
1636841689955322064,146256,1636841689955119976,,0.0,0.0,0.0,0.0,-1.0,0.0,0.0,0.0,0.0,0.0,0.0,0.0,0.0,0.0,-0.00523598775598,0.00610865238198,0.0,0.0,0.0,0.0,0.0,0.0,0.0,0.0,0.0,0.064746,0.226611,-9.614781,0.0,0.0,0.0,0.0,0.0,0.0,0.0,0.0,0.0
1636841689975274278,146257,1636841689975167658,,0.0,0.0,0.0,0.0,-1.0,0.0,0.0,0.0,0.0,0.0,0.0,0.0,0.0,0.00261799387799,-0.000872664625997,-0.00349065850399,0.0,0.0,0.0,0.0,0.0,0.0,0.0,0.0,0.0,0.129492,0.194238,-9.550035,0.0,0.0,0.0,0.0,0.0,0.0,0.0,0.0,0.0
1636841689995415862,146258,1636841689995166437,,0.0,0.0,0.0,0.0,-1.0,0.0,0.0,0.0,0.0,0.0,0.0,0.0,0.0,0.00785398163397,0.00610865238198,-0.012217304764,0.0,0.0,0.0,0.0,0.0,0.0,0.0,0.0,0.0,0.097119,0.226611,-9.614781,0.0,0.0,0.0,0.0,0.0,0.0,0.0,0.0,0.0
1636841690015497248,146259,1636841690015229291,,0.0,0.0,0.0,0.0,-1.0,0.0,0.0,0.0,0.0,0.0,0.0,0.0,0.0,-0.000872664625997,0.011344640138,-0.00698131700798,0.0,0.0,0.0,0.0,0.0,0.0,0.0,0.0,0.0,0.064746,0.194238,-9.582408,0.0,0.0,0.0,0.0,0.0,0.0,0.0,0.0,0.0
1636841690035950602,146260,1636841690035385786,,0.0,0.0,0.0,0.0,-1.0,0.0,0.0,0.0,0.0,0.0,0.0,0.0,0.0,0.00436332312999,0.00523598775598,-0.00610865238198,0.0,0.0,0.0,0.0,0.0,0.0,0.0,0.0,0.0,0.129492,0.226611,-9.647154,0.0,0.0,0.0,0.0,0.0,0.0,0.0,0.0,0.0
1636841690055629602,146261,1636841690055411339,,0.0,0.0,0.0,0.0,-1.0,0.0,0.0,0.0,0.0,0.0,0.0,0.0,0.0,-0.00610865238198,0.00436332312999,-0.0191986217719,0.0,0.0,0.0,0.0,0.0,0.0,0.0,0.0,0.0,0.064746,0.226611,-9.647154,0.0,0.0,0.0,0.0,0.0,0.0,0.0,0.0,0.0
1636841690075677629,146262,1636841690075398864,,0.0,0.0,0.0,0.0,-1.0,0.0,0.0,0.0,0.0,0.0,0.0,0.0,0.0,0.00174532925199,0.000872664625997,0.0,0.0,0.0,0.0,0.0,0.0,0.0,0.0,0.0,0.0,0.064746,0.129492,-9.647154,0.0,0.0,0.0,0.0,0.0,0.0,0.0,0.0,0.0
1636841690095529280,146263,1636841690095353453,,0.0,0.0,0.0,0.0,-1.0,0.0,0.0,0.0,0.0,0.0,0.0,0.0,0.0,-0.00436332312999,0.0,-0.00523598775598,0.0,0.0,0.0,0.0,0.0,0.0,0.0,0.0,0.0,0.032373,0.032373,-9.582408,0.0,0.0,0.0,0.0,0.0,0.0,0.0,0.0,0.0
1636841690115739644,146264,1636841690115350912,,0.0,0.0,0.0,0.0,-1.0,0.0,0.0,0.0,0.0,0.0,0.0,0.0,0.0,-0.00523598775598,0.00610865238198,-0.00261799387799,0.0,0.0,0.0,0.0,0.0,0.0,0.0,0.0,0.0,0.064746,0.0,-9.582408,0.0,0.0,0.0,0.0,0.0,0.0,0.0,0.0,0.0
1636841690136262690,146265,1636841690135568634,,0.0,0.0,0.0,0.0,-1.0,0.0,0.0,0.0,0.0,0.0,0.0,0.0,0.0,0.00261799387799,0.00959931088597,0.0,0.0,0.0,0.0,0.0,0.0,0.0,0.0,0.0,0.0,0.064746,0.161865,-9.485289,0.0,0.0,0.0,0.0,0.0,0.0,0.0,0.0,0.0
1636841690155899135,146266,1636841690155625217,,0.0,0.0,0.0,0.0,-1.0,0.0,0.0,0.0,0.0,0.0,0.0,0.0,0.0,-0.00523598775598,0.012217304764,-0.0157079632679,0.0,0.0,0.0,0.0,0.0,0.0,0.0,0.0,0.0,0.0,0.129492,-9.647154,0.0,0.0,0.0,0.0,0.0,0.0,0.0,0.0,0.0
1636841690176005032,146267,1636841690175512373,,0.0,0.0,0.0,0.0,-1.0,0.0,0.0,0.0,0.0,0.0,0.0,0.0,0.0,-0.00349065850399,-0.00261799387799,-0.011344640138,0.0,0.0,0.0,0.0,0.0,0.0,0.0,0.0,0.0,0.129492,0.194238,-9.679527,0.0,0.0,0.0,0.0,0.0,0.0,0.0,0.0,0.0
1636841690196236305,146268,1636841690195578405,,0.0,0.0,0.0,0.0,-1.0,0.0,0.0,0.0,0.0,0.0,0.0,0.0,0.0,0.00785398163397,0.00523598775598,-0.01308996939,0.0,0.0,0.0,0.0,0.0,0.0,0.0,0.0,0.0,0.291357,0.161865,-9.7119,0.0,0.0,0.0,0.0,0.0,0.0,0.0,0.0,0.0
1636841690216714927,146269,1636841690215682954,,0.0,0.0,0.0,0.0,-1.0,0.0,0.0,0.0,0.0,0.0,0.0,0.0,0.0,0.0,-0.00174532925199,-0.00785398163397,0.0,0.0,0.0,0.0,0.0,0.0,0.0,0.0,0.0,0.064746,0.356103,-9.614781,0.0,0.0,0.0,0.0,0.0,0.0,0.0,0.0,0.0
1636841690235553562,146270,1636841690235340199,,0.0,0.0,0.0,0.0,-1.0,0.0,0.0,0.0,0.0,0.0,0.0,0.0,0.0,0.00174532925199,0.00436332312999,-0.010471975512,0.0,0.0,0.0,0.0,0.0,0.0,0.0,0.0,0.0,0.064746,0.194238,-9.550035,0.0,0.0,0.0,0.0,0.0,0.0,0.0,0.0,0.0
1636841690255630379,146271,1636841690255456159,,0.0,0.0,0.0,0.0,-1.0,0.0,0.0,0.0,0.0,0.0,0.0,0.0,0.0,0.0,0.00523598775598,-0.011344640138,0.0,0.0,0.0,0.0,0.0,0.0,0.0,0.0,0.0,0.064746,0.194238,-9.614781,0.0,0.0,0.0,0.0,0.0,0.0,0.0,0.0,0.0
1636841690275670092,146272,1636841690275350154,,0.0,0.0,0.0,0.0,-1.0,0.0,0.0,0.0,0.0,0.0,0.0,0.0,0.0,0.00174532925199,-0.000872664625997,-0.00261799387799,0.0,0.0,0.0,0.0,0.0,0.0,0.0,0.0,0.0,0.032373,0.226611,-9.647154,0.0,0.0,0.0,0.0,0.0,0.0,0.0,0.0,0.0
1636841690295282734,146273,1636841690295190032,,0.0,0.0,0.0,0.0,-1.0,0.0,0.0,0.0,0.0,0.0,0.0,0.0,0.0,0.000872664625997,-0.00698131700798,-0.00174532925199,0.0,0.0,0.0,0.0,0.0,0.0,0.0,0.0,0.0,0.097119,0.194238,-9.679527,0.0,0.0,0.0,0.0,0.0,0.0,0.0,0.0,0.0
1636841690315218335,146274,1636841690315098563,,0.0,0.0,0.0,0.0,-1.0,0.0,0.0,0.0,0.0,0.0,0.0,0.0,0.0,-0.00349065850399,0.00174532925199,0.00349065850399,0.0,0.0,0.0,0.0,0.0,0.0,0.0,0.0,0.0,0.032373,0.194238,-9.582408,0.0,0.0,0.0,0.0,0.0,0.0,0.0,0.0,0.0
1636841690335380852,146275,1636841690335154707,,0.0,0.0,0.0,0.0,-1.0,0.0,0.0,0.0,0.0,0.0,0.0,0.0,0.0,0.00261799387799,0.000872664625997,-0.00349065850399,0.0,0.0,0.0,0.0,0.0,0.0,0.0,0.0,0.0,0.097119,0.194238,-9.614781,0.0,0.0,0.0,0.0,0.0,0.0,0.0,0.0,0.0
1636841690355274351,146276,1636841690355153209,,0.0,0.0,0.0,0.0,-1.0,0.0,0.0,0.0,0.0,0.0,0.0,0.0,0.0,0.00261799387799,0.00261799387799,-0.011344640138,0.0,0.0,0.0,0.0,0.0,0.0,0.0,0.0,0.0,0.064746,0.161865,-9.614781,0.0,0.0,0.0,0.0,0.0,0.0,0.0,0.0,0.0
1636841690375270920,146277,1636841690375150947,,0.0,0.0,0.0,0.0,-1.0,0.0,0.0,0.0,0.0,0.0,0.0,0.0,0.0,0.0,-0.000872664625997,-0.0191986217719,0.0,0.0,0.0,0.0,0.0,0.0,0.0,0.0,0.0,0.064746,0.161865,-9.614781,0.0,0.0,0.0,0.0,0.0,0.0,0.0,0.0,0.0
1636841690395343200,146278,1636841690395201764,,0.0,0.0,0.0,0.0,-1.0,0.0,0.0,0.0,0.0,0.0,0.0,0.0,0.0,0.00436332312999,0.00174532925199,-0.00698131700798,0.0,0.0,0.0,0.0,0.0,0.0,0.0,0.0,0.0,0.032373,0.194238,-9.647154,0.0,0.0,0.0,0.0,0.0,0.0,0.0,0.0,0.0
1636841690415367266,146279,1636841690415237241,,0.0,0.0,0.0,0.0,-1.0,0.0,0.0,0.0,0.0,0.0,0.0,0.0,0.0,-0.000872664625997,0.012217304764,0.0,0.0,0.0,0.0,0.0,0.0,0.0,0.0,0.0,0.0,0.097119,0.097119,-9.582408,0.0,0.0,0.0,0.0,0.0,0.0,0.0,0.0,0.0
1636841690435820013,146280,1636841690435476751,,0.0,0.0,0.0,0.0,-1.0,0.0,0.0,0.0,0.0,0.0,0.0,0.0,0.0,0.00349065850399,0.00261799387799,-0.012217304764,0.0,0.0,0.0,0.0,0.0,0.0,0.0,0.0,0.0,0.032373,0.129492,-9.517662,0.0,0.0,0.0,0.0,0.0,0.0,0.0,0.0,0.0
1636841690457226888,146281,1636841690455874210,,0.0,0.0,0.0,0.0,-1.0,0.0,0.0,0.0,0.0,0.0,0.0,0.0,0.0,0.000872664625997,0.013962634016,-0.00349065850399,0.0,0.0,0.0,0.0,0.0,0.0,0.0,0.0,0.0,0.097119,0.129492,-9.647154,0.0,0.0,0.0,0.0,0.0,0.0,0.0,0.0,0.0
1636841690476981704,146282,1636841690476388680,,0.0,0.0,0.0,0.0,-1.0,0.0,0.0,0.0,0.0,0.0,0.0,0.0,0.0,-0.00698131700798,0.00261799387799,-0.00959931088597,0.0,0.0,0.0,0.0,0.0,0.0,0.0,0.0,0.0,0.097119,0.226611,-9.550035,0.0,0.0,0.0,0.0,0.0,0.0,0.0,0.0,0.0
1636841690497164046,146283,1636841690495860645,,0.0,0.0,0.0,0.0,-1.0,0.0,0.0,0.0,0.0,0.0,0.0,0.0,0.0,0.00436332312999,0.00349065850399,0.000872664625997,0.0,0.0,0.0,0.0,0.0,0.0,0.0,0.0,0.0,0.129492,0.258984,-9.614781,0.0,0.0,0.0,0.0,0.0,0.0,0.0,0.0,0.0
1636841690517346398,146284,1636841690515881654,,0.0,0.0,0.0,0.0,-1.0,0.0,0.0,0.0,0.0,0.0,0.0,0.0,0.0,-0.00436332312999,0.00523598775598,0.0,0.0,0.0,0.0,0.0,0.0,0.0,0.0,0.0,0.0,0.064746,0.161865,-9.679527,0.0,0.0,0.0,0.0,0.0,0.0,0.0,0.0,0.0
1636841690538139789,146285,1636841690537715672,,0.0,0.0,0.0,0.0,-1.0,0.0,0.0,0.0,0.0,0.0,0.0,0.0,0.0,-0.00610865238198,0.00261799387799,-0.000872664625997,0.0,0.0,0.0,0.0,0.0,0.0,0.0,0.0,0.0,0.129492,0.161865,-9.582408,0.0,0.0,0.0,0.0,0.0,0.0,0.0,0.0,0.0
1636841690555998162,146286,1636841690555486631,,0.0,0.0,0.0,0.0,-1.0,0.0,0.0,0.0,0.0,0.0,0.0,0.0,0.0,0.0,0.00261799387799,-0.00610865238198,0.0,0.0,0.0,0.0,0.0,0.0,0.0,0.0,0.0,0.0,0.161865,-9.550035,0.0,0.0,0.0,0.0,0.0,0.0,0.0,0.0,0.0
1636841690575668561,146287,1636841690575142630,,0.0,0.0,0.0,0.0,-1.0,0.0,0.0,0.0,0.0,0.0,0.0,0.0,0.0,-0.00959931088597,0.012217304764,-0.013962634016,0.0,0.0,0.0,0.0,0.0,0.0,0.0,0.0,0.0,0.032373,0.161865,-9.614781,0.0,0.0,0.0,0.0,0.0,0.0,0.0,0.0,0.0
1636841690595215529,146288,1636841690595121263,,0.0,0.0,0.0,0.0,-1.0,0.0,0.0,0.0,0.0,0.0,0.0,0.0,0.0,0.00523598775598,0.000872664625997,-0.00610865238198,0.0,0.0,0.0,0.0,0.0,0.0,0.0,0.0,0.0,0.064746,0.194238,-9.679527,0.0,0.0,0.0,0.0,0.0,0.0,0.0,0.0,0.0
1636841690615259519,146289,1636841690615119697,,0.0,0.0,0.0,0.0,-1.0,0.0,0.0,0.0,0.0,0.0,0.0,0.0,0.0,0.00785398163397,0.00174532925199,-0.00698131700798,0.0,0.0,0.0,0.0,0.0,0.0,0.0,0.0,0.0,0.064746,0.226611,-9.647154,0.0,0.0,0.0,0.0,0.0,0.0,0.0,0.0,0.0
1636841690635423506,146290,1636841690635143736,,0.0,0.0,0.0,0.0,-1.0,0.0,0.0,0.0,0.0,0.0,0.0,0.0,0.0,-0.00349065850399,0.00610865238198,-0.00872664625997,0.0,0.0,0.0,0.0,0.0,0.0,0.0,0.0,0.0,0.129492,0.194238,-9.679527,0.0,0.0,0.0,0.0,0.0,0.0,0.0,0.0,0.0
1636841690655219554,146291,1636841690655131217,,0.0,0.0,0.0,0.0,-1.0,0.0,0.0,0.0,0.0,0.0,0.0,0.0,0.0,0.0,0.00959931088597,-0.00610865238198,0.0,0.0,0.0,0.0,0.0,0.0,0.0,0.0,0.0,0.032373,0.194238,-9.614781,0.0,0.0,0.0,0.0,0.0,0.0,0.0,0.0,0.0
1636841690675296473,146292,1636841690675181335,,0.0,0.0,0.0,0.0,-1.0,0.0,0.0,0.0,0.0,0.0,0.0,0.0,0.0,0.0,0.00174532925199,-0.000872664625997,0.0,0.0,0.0,0.0,0.0,0.0,0.0,0.0,0.0,0.032373,0.226611,-9.647154,0.0,0.0,0.0,0.0,0.0,0.0,0.0,0.0,0.0
1636841690695397647,146293,1636841690695204258,,0.0,0.0,0.0,0.0,-1.0,0.0,0.0,0.0,0.0,0.0,0.0,0.0,0.0,0.00261799387799,0.00959931088597,-0.011344640138,0.0,0.0,0.0,0.0,0.0,0.0,0.0,0.0,0.0,0.064746,0.194238,-9.679527,0.0,0.0,0.0,0.0,0.0,0.0,0.0,0.0,0.0
1636841690715515086,146294,1636841690715225650,,0.0,0.0,0.0,0.0,-1.0,0.0,0.0,0.0,0.0,0.0,0.0,0.0,0.0,-0.00698131700798,0.00436332312999,0.00261799387799,0.0,0.0,0.0,0.0,0.0,0.0,0.0,0.0,0.0,0.258984,0.161865,-9.582408,0.0,0.0,0.0,0.0,0.0,0.0,0.0,0.0,0.0
1636841690736082034,146295,1636841690735535613,,0.0,0.0,0.0,0.0,-1.0,0.0,0.0,0.0,0.0,0.0,0.0,0.0,0.0,0.00261799387799,0.00610865238198,-0.00261799387799,0.0,0.0,0.0,0.0,0.0,0.0,0.0,0.0,0.0,0.064746,0.194238,-9.582408,0.0,0.0,0.0,0.0,0.0,0.0,0.0,0.0,0.0
1636841690756379248,146296,1636841690755588416,,0.0,0.0,0.0,0.0,-1.0,0.0,0.0,0.0,0.0,0.0,0.0,0.0,0.0,-0.011344640138,0.00261799387799,-0.00785398163397,0.0,0.0,0.0,0.0,0.0,0.0,0.0,0.0,0.0,-0.064746,0.129492,-9.647154,0.0,0.0,0.0,0.0,0.0,0.0,0.0,0.0,0.0
1636841690775926863,146297,1636841690775488365,,0.0,0.0,0.0,0.0,-1.0,0.0,0.0,0.0,0.0,0.0,0.0,0.0,0.0,-0.00349065850399,0.00436332312999,-0.00261799387799,0.0,0.0,0.0,0.0,0.0,0.0,0.0,0.0,0.0,0.097119,0.226611,-9.550035,0.0,0.0,0.0,0.0,0.0,0.0,0.0,0.0,0.0
1636841690795788905,146298,1636841690795537193,,0.0,0.0,0.0,0.0,-1.0,0.0,0.0,0.0,0.0,0.0,0.0,0.0,0.0,0.00436332312999,0.00698131700798,-0.00349065850399,0.0,0.0,0.0,0.0,0.0,0.0,0.0,0.0,0.0,0.097119,0.226611,-9.647154,0.0,0.0,0.0,0.0,0.0,0.0,0.0,0.0,0.0
1636841690815950996,146299,1636841690815472853,,0.0,0.0,0.0,0.0,-1.0,0.0,0.0,0.0,0.0,0.0,0.0,0.0,0.0,0.00698131700798,0.000872664625997,-0.0165806278939,0.0,0.0,0.0,0.0,0.0,0.0,0.0,0.0,0.0,0.258984,0.161865,-9.614781,0.0,0.0,0.0,0.0,0.0,0.0,0.0,0.0,0.0
1636841690835690067,146300,1636841690835442967,,0.0,0.0,0.0,0.0,-1.0,0.0,0.0,0.0,0.0,0.0,0.0,0.0,0.0,-0.00436332312999,0.01308996939,-0.00174532925199,0.0,0.0,0.0,0.0,0.0,0.0,0.0,0.0,0.0,0.129492,0.194238,-9.582408,0.0,0.0,0.0,0.0,0.0,0.0,0.0,0.0,0.0
1636841690856225724,146301,1636841690855964035,,0.0,0.0,0.0,0.0,-1.0,0.0,0.0,0.0,0.0,0.0,0.0,0.0,0.0,0.00698131700798,0.00523598775598,-0.010471975512,0.0,0.0,0.0,0.0,0.0,0.0,0.0,0.0,0.0,-0.032373,0.226611,-9.679527,0.0,0.0,0.0,0.0,0.0,0.0,0.0,0.0,0.0
1636841690877181653,146302,1636841690875628546,,0.0,0.0,0.0,0.0,-1.0,0.0,0.0,0.0,0.0,0.0,0.0,0.0,0.0,-0.00261799387799,0.00174532925199,-0.000872664625997,0.0,0.0,0.0,0.0,0.0,0.0,0.0,0.0,0.0,0.064746,0.161865,-9.614781,0.0,0.0,0.0,0.0,0.0,0.0,0.0,0.0,0.0
1636841690897208284,146303,1636841690896018858,,0.0,0.0,0.0,0.0,-1.0,0.0,0.0,0.0,0.0,0.0,0.0,0.0,0.0,0.000872664625997,-0.00261799387799,-0.00610865238198,0.0,0.0,0.0,0.0,0.0,0.0,0.0,0.0,0.0,0.097119,0.258984,-9.614781,0.0,0.0,0.0,0.0,0.0,0.0,0.0,0.0,0.0
1636841690915606002,146304,1636841690915252821,,0.0,0.0,0.0,0.0,-1.0,0.0,0.0,0.0,0.0,0.0,0.0,0.0,0.0,0.0,0.012217304764,-0.000872664625997,0.0,0.0,0.0,0.0,0.0,0.0,0.0,0.0,0.0,0.0,0.194238,-9.550035,0.0,0.0,0.0,0.0,0.0,0.0,0.0,0.0,0.0
1636841690935629711,146305,1636841690935440700,,0.0,0.0,0.0,0.0,-1.0,0.0,0.0,0.0,0.0,0.0,0.0,0.0,0.0,0.00174532925199,-0.00349065850399,-0.013962634016,0.0,0.0,0.0,0.0,0.0,0.0,0.0,0.0,0.0,0.097119,0.226611,-9.550035,0.0,0.0,0.0,0.0,0.0,0.0,0.0,0.0,0.0
1636841690956271225,146306,1636841690955395900,,0.0,0.0,0.0,0.0,-1.0,0.0,0.0,0.0,0.0,0.0,0.0,0.0,0.0,0.00261799387799,0.00261799387799,-0.00610865238198,0.0,0.0,0.0,0.0,0.0,0.0,0.0,0.0,0.0,0.194238,0.226611,-9.614781,0.0,0.0,0.0,0.0,0.0,0.0,0.0,0.0,0.0
1636841690976001065,146307,1636841690975470004,,0.0,0.0,0.0,0.0,-1.0,0.0,0.0,0.0,0.0,0.0,0.0,0.0,0.0,0.00523598775598,0.00436332312999,0.0,0.0,0.0,0.0,0.0,0.0,0.0,0.0,0.0,0.0,0.032373,0.161865,-9.614781,0.0,0.0,0.0,0.0,0.0,0.0,0.0,0.0,0.0
1636841690995641414,146308,1636841690995335216,,0.0,0.0,0.0,0.0,-1.0,0.0,0.0,0.0,0.0,0.0,0.0,0.0,0.0,-0.010471975512,0.000872664625997,-0.00785398163397,0.0,0.0,0.0,0.0,0.0,0.0,0.0,0.0,0.0,0.064746,0.226611,-9.647154,0.0,0.0,0.0,0.0,0.0,0.0,0.0,0.0,0.0
1636841691015855786,146309,1636841691015451440,,0.0,0.0,0.0,0.0,-1.0,0.0,0.0,0.0,0.0,0.0,0.0,0.0,0.0,-0.00436332312999,0.010471975512,-0.00610865238198,0.0,0.0,0.0,0.0,0.0,0.0,0.0,0.0,0.0,0.097119,0.356103,-9.517662,0.0,0.0,0.0,0.0,0.0,0.0,0.0,0.0,0.0
1636841691035616861,146310,1636841691035236166,,0.0,0.0,0.0,0.0,-1.0,0.0,0.0,0.0,0.0,0.0,0.0,0.0,0.0,0.00436332312999,0.01308996939,-0.000872664625997,0.0,0.0,0.0,0.0,0.0,0.0,0.0,0.0,0.0,0.129492,0.194238,-9.517662,0.0,0.0,0.0,0.0,0.0,0.0,0.0,0.0,0.0
1636841691056859502,146311,1636841691055365144,,0.0,0.0,0.0,0.0,-1.0,0.0,0.0,0.0,0.0,0.0,0.0,0.0,0.0,0.00436332312999,0.00872664625997,-0.00349065850399,0.0,0.0,0.0,0.0,0.0,0.0,0.0,0.0,0.0,-0.064746,0.194238,-9.614781,0.0,0.0,0.0,0.0,0.0,0.0,0.0,0.0,0.0
1636841691075485309,146312,1636841691075267052,,0.0,0.0,0.0,0.0,-1.0,0.0,0.0,0.0,0.0,0.0,0.0,0.0,0.0,0.00349065850399,-0.00261799387799,-0.00785398163397,0.0,0.0,0.0,0.0,0.0,0.0,0.0,0.0,0.0,0.097119,0.226611,-9.291051,0.0,0.0,0.0,0.0,0.0,0.0,0.0,0.0,0.0
1636841691095363824,146313,1636841691095212182,,0.0,0.0,0.0,0.0,-1.0,0.0,0.0,0.0,0.0,0.0,0.0,0.0,0.0,0.00698131700798,0.0,-0.014835298642,0.0,0.0,0.0,0.0,0.0,0.0,0.0,0.0,0.0,0.161865,0.258984,-9.614781,0.0,0.0,0.0,0.0,0.0,0.0,0.0,0.0,0.0
1636841691115473201,146314,1636841691115321910,,0.0,0.0,0.0,0.0,-1.0,0.0,0.0,0.0,0.0,0.0,0.0,0.0,0.0,-0.00523598775598,0.00436332312999,-0.00785398163397,0.0,0.0,0.0,0.0,0.0,0.0,0.0,0.0,0.0,0.097119,0.161865,-9.776646,0.0,0.0,0.0,0.0,0.0,0.0,0.0,0.0,0.0
1636841691135540877,146315,1636841691135344475,,0.0,0.0,0.0,0.0,-1.0,0.0,0.0,0.0,0.0,0.0,0.0,0.0,0.0,0.0,0.00261799387799,0.00261799387799,0.0,0.0,0.0,0.0,0.0,0.0,0.0,0.0,0.0,0.129492,0.226611,-9.614781,0.0,0.0,0.0,0.0,0.0,0.0,0.0,0.0,0.0
1636841691155506156,146316,1636841691155346863,,0.0,0.0,0.0,0.0,-1.0,0.0,0.0,0.0,0.0,0.0,0.0,0.0,0.0,-0.00174532925199,0.00174532925199,-0.00174532925199,0.0,0.0,0.0,0.0,0.0,0.0,0.0,0.0,0.0,0.129492,0.194238,-9.550035,0.0,0.0,0.0,0.0,0.0,0.0,0.0,0.0,0.0
1636841691175700765,146317,1636841691175275670,,0.0,0.0,0.0,0.0,-1.0,0.0,0.0,0.0,0.0,0.0,0.0,0.0,0.0,0.00436332312999,0.000872664625997,0.0,0.0,0.0,0.0,0.0,0.0,0.0,0.0,0.0,0.0,0.097119,0.097119,-9.647154,0.0,0.0,0.0,0.0,0.0,0.0,0.0,0.0,0.0
1636841691195537456,146318,1636841691195370554,,0.0,0.0,0.0,0.0,-1.0,0.0,0.0,0.0,0.0,0.0,0.0,0.0,0.0,0.00261799387799,0.0,-0.012217304764,0.0,0.0,0.0,0.0,0.0,0.0,0.0,0.0,0.0,0.097119,0.226611,-9.614781,0.0,0.0,0.0,0.0,0.0,0.0,0.0,0.0,0.0
1636841691215674595,146319,1636841691215337322,,0.0,0.0,0.0,0.0,-1.0,0.0,0.0,0.0,0.0,0.0,0.0,0.0,0.0,-0.000872664625997,0.00436332312999,-0.010471975512,0.0,0.0,0.0,0.0,0.0,0.0,0.0,0.0,0.0,0.097119,0.226611,-9.614781,0.0,0.0,0.0,0.0,0.0,0.0,0.0,0.0,0.0
1636841691235785341,146320,1636841691235347878,,0.0,0.0,0.0,0.0,-1.0,0.0,0.0,0.0,0.0,0.0,0.0,0.0,0.0,-0.00785398163397,0.00349065850399,-0.00261799387799,0.0,0.0,0.0,0.0,0.0,0.0,0.0,0.0,0.0,0.097119,0.194238,-9.582408,0.0,0.0,0.0,0.0,0.0,0.0,0.0,0.0,0.0
1636841691255801051,146321,1636841691255322268,,0.0,0.0,0.0,0.0,-1.0,0.0,0.0,0.0,0.0,0.0,0.0,0.0,0.0,0.0,0.0183259571459,-0.00610865238198,0.0,0.0,0.0,0.0,0.0,0.0,0.0,0.0,0.0,0.226611,0.226611,-9.582408,0.0,0.0,0.0,0.0,0.0,0.0,0.0,0.0,0.0
1636841691275866278,146322,1636841691275478006,,0.0,0.0,0.0,0.0,-1.0,0.0,0.0,0.0,0.0,0.0,0.0,0.0,0.0,-0.00349065850399,-0.00261799387799,-0.00261799387799,0.0,0.0,0.0,0.0,0.0,0.0,0.0,0.0,0.0,0.097119,0.194238,-9.679527,0.0,0.0,0.0,0.0,0.0,0.0,0.0,0.0,0.0
1636841691295603749,146323,1636841691295353081,,0.0,0.0,0.0,0.0,-1.0,0.0,0.0,0.0,0.0,0.0,0.0,0.0,0.0,-0.00261799387799,0.0157079632679,-0.00174532925199,0.0,0.0,0.0,0.0,0.0,0.0,0.0,0.0,0.0,0.064746,0.226611,-9.679527,0.0,0.0,0.0,0.0,0.0,0.0,0.0,0.0,0.0
1636841691315903052,146324,1636841691315448434,,0.0,0.0,0.0,0.0,-1.0,0.0,0.0,0.0,0.0,0.0,0.0,0.0,0.0,-0.00174532925199,0.00436332312999,-0.00436332312999,0.0,0.0,0.0,0.0,0.0,0.0,0.0,0.0,0.0,0.129492,0.194238,-9.550035,0.0,0.0,0.0,0.0,0.0,0.0,0.0,0.0,0.0
1636841691335478070,146325,1636841691335266631,,0.0,0.0,0.0,0.0,-1.0,0.0,0.0,0.0,0.0,0.0,0.0,0.0,0.0,0.0,-0.000872664625997,-0.000872664625997,0.0,0.0,0.0,0.0,0.0,0.0,0.0,0.0,0.0,0.0,0.194238,-9.614781,0.0,0.0,0.0,0.0,0.0,0.0,0.0,0.0,0.0
1636841691356194796,146326,1636841691355956009,,0.0,0.0,0.0,0.0,-1.0,0.0,0.0,0.0,0.0,0.0,0.0,0.0,0.0,-0.000872664625997,0.00698131700798,0.0,0.0,0.0,0.0,0.0,0.0,0.0,0.0,0.0,0.0,0.129492,0.194238,-9.452916,0.0,0.0,0.0,0.0,0.0,0.0,0.0,0.0,0.0
1636841691375790271,146327,1636841691375351313,,0.0,0.0,0.0,0.0,-1.0,0.0,0.0,0.0,0.0,0.0,0.0,0.0,0.0,-0.00523598775598,0.00349065850399,-0.00349065850399,0.0,0.0,0.0,0.0,0.0,0.0,0.0,0.0,0.0,0.064746,0.194238,-9.614781,0.0,0.0,0.0,0.0,0.0,0.0,0.0,0.0,0.0
1636841691395547854,146328,1636841691395259543,,0.0,0.0,0.0,0.0,-1.0,0.0,0.0,0.0,0.0,0.0,0.0,0.0,0.0,-0.00610865238198,-0.00349065850399,-0.00436332312999,0.0,0.0,0.0,0.0,0.0,0.0,0.0,0.0,0.0,0.032373,0.291357,-9.614781,0.0,0.0,0.0,0.0,0.0,0.0,0.0,0.0,0.0
1636841691415509562,146329,1636841691415244745,,0.0,0.0,0.0,0.0,-1.0,0.0,0.0,0.0,0.0,0.0,0.0,0.0,0.0,-0.00261799387799,0.00261799387799,-0.00436332312999,0.0,0.0,0.0,0.0,0.0,0.0,0.0,0.0,0.0,0.064746,0.226611,-9.679527,0.0,0.0,0.0,0.0,0.0,0.0,0.0,0.0,0.0
1636841691435698665,146330,1636841691435389916,,0.0,0.0,0.0,0.0,-1.0,0.0,0.0,0.0,0.0,0.0,0.0,0.0,0.0,-0.00610865238198,0.011344640138,-0.00523598775598,0.0,0.0,0.0,0.0,0.0,0.0,0.0,0.0,0.0,0.097119,0.161865,-9.7119,0.0,0.0,0.0,0.0,0.0,0.0,0.0,0.0,0.0
1636841691455983914,146331,1636841691455672446,,0.0,0.0,0.0,0.0,-1.0,0.0,0.0,0.0,0.0,0.0,0.0,0.0,0.0,0.00959931088597,0.000872664625997,-0.00959931088597,0.0,0.0,0.0,0.0,0.0,0.0,0.0,0.0,0.0,0.129492,0.129492,-9.7119,0.0,0.0,0.0,0.0,0.0,0.0,0.0,0.0,0.0
1636841691476215107,146332,1636841691475411405,,0.0,0.0,0.0,0.0,-1.0,0.0,0.0,0.0,0.0,0.0,0.0,0.0,0.0,-0.000872664625997,0.00436332312999,-0.00261799387799,0.0,0.0,0.0,0.0,0.0,0.0,0.0,0.0,0.0,0.097119,0.226611,-9.614781,0.0,0.0,0.0,0.0,0.0,0.0,0.0,0.0,0.0
1636841691495996790,146333,1636841691495419114,,0.0,0.0,0.0,0.0,-1.0,0.0,0.0,0.0,0.0,0.0,0.0,0.0,0.0,0.000872664625997,0.00959931088597,-0.00261799387799,0.0,0.0,0.0,0.0,0.0,0.0,0.0,0.0,0.0,0.064746,0.194238,-9.614781,0.0,0.0,0.0,0.0,0.0,0.0,0.0,0.0,0.0
1636841691516083279,146334,1636841691515483479,,0.0,0.0,0.0,0.0,-1.0,0.0,0.0,0.0,0.0,0.0,0.0,0.0,0.0,0.0,0.00261799387799,-0.00523598775598,0.0,0.0,0.0,0.0,0.0,0.0,0.0,0.0,0.0,0.064746,0.194238,-9.614781,0.0,0.0,0.0,0.0,0.0,0.0,0.0,0.0,0.0
1636841691536078422,146335,1636841691535491525,,0.0,0.0,0.0,0.0,-1.0,0.0,0.0,0.0,0.0,0.0,0.0,0.0,0.0,-0.011344640138,0.00785398163397,-0.00610865238198,0.0,0.0,0.0,0.0,0.0,0.0,0.0,0.0,0.0,0.032373,0.161865,-9.647154,0.0,0.0,0.0,0.0,0.0,0.0,0.0,0.0,0.0
1636841691555677168,146336,1636841691555355722,,0.0,0.0,0.0,0.0,-1.0,0.0,0.0,0.0,0.0,0.0,0.0,0.0,0.0,0.0,0.000872664625997,-0.00698131700798,0.0,0.0,0.0,0.0,0.0,0.0,0.0,0.0,0.0,0.064746,0.194238,-9.550035,0.0,0.0,0.0,0.0,0.0,0.0,0.0,0.0,0.0
1636841691575997567,146337,1636841691575291771,,0.0,0.0,0.0,0.0,-1.0,0.0,0.0,0.0,0.0,0.0,0.0,0.0,0.0,-0.00174532925199,0.000872664625997,-0.00174532925199,0.0,0.0,0.0,0.0,0.0,0.0,0.0,0.0,0.0,0.0,0.0,-9.647154,0.0,0.0,0.0,0.0,0.0,0.0,0.0,0.0,0.0
1636841691595620422,146338,1636841691595394690,,0.0,0.0,0.0,0.0,-1.0,0.0,0.0,0.0,0.0,0.0,0.0,0.0,0.0,0.000872664625997,-0.00436332312999,-0.00610865238198,0.0,0.0,0.0,0.0,0.0,0.0,0.0,0.0,0.0,0.129492,0.161865,-9.647154,0.0,0.0,0.0,0.0,0.0,0.0,0.0,0.0,0.0
1636841691615658008,146339,1636841691615257558,,0.0,0.0,0.0,0.0,-1.0,0.0,0.0,0.0,0.0,0.0,0.0,0.0,0.0,-0.010471975512,0.000872664625997,-0.00959931088597,0.0,0.0,0.0,0.0,0.0,0.0,0.0,0.0,0.0,0.097119,0.258984,-9.582408,0.0,0.0,0.0,0.0,0.0,0.0,0.0,0.0,0.0
1636841691635582882,146340,1636841691635259716,,0.0,0.0,0.0,0.0,-1.0,0.0,0.0,0.0,0.0,0.0,0.0,0.0,0.0,-0.00523598775598,0.010471975512,-0.00785398163397,0.0,0.0,0.0,0.0,0.0,0.0,0.0,0.0,0.0,0.097119,0.226611,-9.582408,0.0,0.0,0.0,0.0,0.0,0.0,0.0,0.0,0.0
1636841691655744044,146341,1636841691655178380,,0.0,0.0,0.0,0.0,-1.0,0.0,0.0,0.0,0.0,0.0,0.0,0.0,0.0,0.00698131700798,0.00436332312999,-0.00523598775598,0.0,0.0,0.0,0.0,0.0,0.0,0.0,0.0,0.0,0.097119,0.226611,-9.776646,0.0,0.0,0.0,0.0,0.0,0.0,0.0,0.0,0.0
1636841691675293206,146342,1636841691675175932,,0.0,0.0,0.0,0.0,-1.0,0.0,0.0,0.0,0.0,0.0,0.0,0.0,0.0,0.000872664625997,-0.000872664625997,-0.000872664625997,0.0,0.0,0.0,0.0,0.0,0.0,0.0,0.0,0.0,0.064746,0.161865,-9.582408,0.0,0.0,0.0,0.0,0.0,0.0,0.0,0.0,0.0
1636841691695448795,146343,1636841691695263895,,0.0,0.0,0.0,0.0,-1.0,0.0,0.0,0.0,0.0,0.0,0.0,0.0,0.0,0.00349065850399,0.00436332312999,-0.012217304764,0.0,0.0,0.0,0.0,0.0,0.0,0.0,0.0,0.0,0.064746,0.161865,-9.614781,0.0,0.0,0.0,0.0,0.0,0.0,0.0,0.0,0.0
1636841691715694846,146344,1636841691715320174,,0.0,0.0,0.0,0.0,-1.0,0.0,0.0,0.0,0.0,0.0,0.0,0.0,0.0,0.000872664625997,0.00785398163397,-0.000872664625997,0.0,0.0,0.0,0.0,0.0,0.0,0.0,0.0,0.0,0.097119,0.226611,-9.582408,0.0,0.0,0.0,0.0,0.0,0.0,0.0,0.0,0.0
1636841691736295944,146345,1636841691735704113,,0.0,0.0,0.0,0.0,-1.0,0.0,0.0,0.0,0.0,0.0,0.0,0.0,0.0,0.000872664625997,-0.00872664625997,-0.01308996939,0.0,0.0,0.0,0.0,0.0,0.0,0.0,0.0,0.0,0.097119,0.258984,-9.614781,0.0,0.0,0.0,0.0,0.0,0.0,0.0,0.0,0.0
1636841691756551867,146346,1636841691756200527,,0.0,0.0,0.0,0.0,-1.0,0.0,0.0,0.0,0.0,0.0,0.0,0.0,0.0,0.0,0.00174532925199,0.00261799387799,0.0,0.0,0.0,0.0,0.0,0.0,0.0,0.0,0.0,0.129492,0.258984,-9.614781,0.0,0.0,0.0,0.0,0.0,0.0,0.0,0.0,0.0
1636841691776040256,146347,1636841691775502059,,0.0,0.0,0.0,0.0,-1.0,0.0,0.0,0.0,0.0,0.0,0.0,0.0,0.0,0.0,0.000872664625997,-0.013962634016,0.0,0.0,0.0,0.0,0.0,0.0,0.0,0.0,0.0,0.129492,0.194238,-9.550035,0.0,0.0,0.0,0.0,0.0,0.0,0.0,0.0,0.0
1636841691797034203,146348,1636841691796667174,,0.0,0.0,0.0,0.0,-1.0,0.0,0.0,0.0,0.0,0.0,0.0,0.0,0.0,-0.00523598775598,0.00523598775598,-0.011344640138,0.0,0.0,0.0,0.0,0.0,0.0,0.0,0.0,0.0,0.129492,0.194238,-9.550035,0.0,0.0,0.0,0.0,0.0,0.0,0.0,0.0,0.0
1636841691816926030,146349,1636841691815481190,,0.0,0.0,0.0,0.0,-1.0,0.0,0.0,0.0,0.0,0.0,0.0,0.0,0.0,-0.000872664625997,0.0157079632679,-0.00785398163397,0.0,0.0,0.0,0.0,0.0,0.0,0.0,0.0,0.0,0.064746,0.194238,-9.582408,0.0,0.0,0.0,0.0,0.0,0.0,0.0,0.0,0.0
1636841691835963245,146350,1636841691835440611,,0.0,0.0,0.0,0.0,-1.0,0.0,0.0,0.0,0.0,0.0,0.0,0.0,0.0,0.00959931088597,0.00174532925199,-0.00872664625997,0.0,0.0,0.0,0.0,0.0,0.0,0.0,0.0,0.0,0.0,0.194238,-9.582408,0.0,0.0,0.0,0.0,0.0,0.0,0.0,0.0,0.0
1636841691856227891,146351,1636841691855344590,,0.0,0.0,0.0,0.0,-1.0,0.0,0.0,0.0,0.0,0.0,0.0,0.0,0.0,-0.000872664625997,0.00698131700798,-0.00872664625997,0.0,0.0,0.0,0.0,0.0,0.0,0.0,0.0,0.0,0.097119,0.194238,-9.582408,0.0,0.0,0.0,0.0,0.0,0.0,0.0,0.0,0.0
1636841691877083138,146352,1636841691876825814,,0.0,0.0,0.0,0.0,-1.0,0.0,0.0,0.0,0.0,0.0,0.0,0.0,0.0,0.00872664625997,0.00261799387799,-0.00959931088597,0.0,0.0,0.0,0.0,0.0,0.0,0.0,0.0,0.0,0.129492,0.129492,-9.582408,0.0,0.0,0.0,0.0,0.0,0.0,0.0,0.0,0.0
1636841691895448668,146353,1636841691895182103,,0.0,0.0,0.0,0.0,-1.0,0.0,0.0,0.0,0.0,0.0,0.0,0.0,0.0,-0.00785398163397,0.0,0.00174532925199,0.0,0.0,0.0,0.0,0.0,0.0,0.0,0.0,0.0,0.161865,0.226611,-9.614781,0.0,0.0,0.0,0.0,0.0,0.0,0.0,0.0,0.0
1636841691915535210,146354,1636841691915298816,,0.0,0.0,0.0,0.0,-1.0,0.0,0.0,0.0,0.0,0.0,0.0,0.0,0.0,0.0,0.00349065850399,-0.00349065850399,0.0,0.0,0.0,0.0,0.0,0.0,0.0,0.0,0.0,0.194238,0.291357,-9.550035,0.0,0.0,0.0,0.0,0.0,0.0,0.0,0.0,0.0
1636841691935555719,146355,1636841691935215380,,0.0,0.0,0.0,0.0,-1.0,0.0,0.0,0.0,0.0,0.0,0.0,0.0,0.0,0.00174532925199,0.011344640138,-0.00959931088597,0.0,0.0,0.0,0.0,0.0,0.0,0.0,0.0,0.0,0.032373,0.258984,-9.582408,0.0,0.0,0.0,0.0,0.0,0.0,0.0,0.0,0.0
1636841691955478850,146356,1636841691955213971,,0.0,0.0,0.0,0.0,-1.0,0.0,0.0,0.0,0.0,0.0,0.0,0.0,0.0,-0.00872664625997,0.00349065850399,-0.00174532925199,0.0,0.0,0.0,0.0,0.0,0.0,0.0,0.0,0.0,0.097119,0.194238,-9.614781,0.0,0.0,0.0,0.0,0.0,0.0,0.0,0.0,0.0
1636841691975361432,146357,1636841691975185257,,0.0,0.0,0.0,0.0,-1.0,0.0,0.0,0.0,0.0,0.0,0.0,0.0,0.0,0.014835298642,0.00872664625997,-0.00261799387799,0.0,0.0,0.0,0.0,0.0,0.0,0.0,0.0,0.0,0.161865,0.194238,-9.614781,0.0,0.0,0.0,0.0,0.0,0.0,0.0,0.0,0.0
1636841691995408966,146358,1636841691995233785,,0.0,0.0,0.0,0.0,-1.0,0.0,0.0,0.0,0.0,0.0,0.0,0.0,0.0,0.00959931088597,-0.000872664625997,-0.00436332312999,0.0,0.0,0.0,0.0,0.0,0.0,0.0,0.0,0.0,0.129492,0.194238,-9.614781,0.0,0.0,0.0,0.0,0.0,0.0,0.0,0.0,0.0
1636841692015571838,146359,1636841692015387500,,0.0,0.0,0.0,0.0,-1.0,0.0,0.0,0.0,0.0,0.0,0.0,0.0,0.0,0.00349065850399,0.00523598775598,-0.012217304764,0.0,0.0,0.0,0.0,0.0,0.0,0.0,0.0,0.0,0.097119,0.226611,-9.614781,0.0,0.0,0.0,0.0,0.0,0.0,0.0,0.0,0.0
1636841692036005264,146360,1636841692035544165,,0.0,0.0,0.0,0.0,-1.0,0.0,0.0,0.0,0.0,0.0,0.0,0.0,0.0,-0.00174532925199,0.00959931088597,-0.00785398163397,0.0,0.0,0.0,0.0,0.0,0.0,0.0,0.0,0.0,0.032373,0.194238,-9.614781,0.0,0.0,0.0,0.0,0.0,0.0,0.0,0.0,0.0
1636841692056581176,146361,1636841692056194899,,0.0,0.0,0.0,0.0,-1.0,0.0,0.0,0.0,0.0,0.0,0.0,0.0,0.0,0.00349065850399,0.00785398163397,-0.00785398163397,0.0,0.0,0.0,0.0,0.0,0.0,0.0,0.0,0.0,0.064746,0.194238,-9.614781,0.0,0.0,0.0,0.0,0.0,0.0,0.0,0.0,0.0
1636841692076815656,146362,1636841692075812592,,0.0,0.0,0.0,0.0,-1.0,0.0,0.0,0.0,0.0,0.0,0.0,0.0,0.0,-0.000872664625997,0.00872664625997,-0.00523598775598,0.0,0.0,0.0,0.0,0.0,0.0,0.0,0.0,0.0,0.064746,0.032373,-9.744273,0.0,0.0,0.0,0.0,0.0,0.0,0.0,0.0,0.0
1636841692096844192,146363,1636841692095810261,,0.0,0.0,0.0,0.0,-1.0,0.0,0.0,0.0,0.0,0.0,0.0,0.0,0.0,-0.00261799387799,0.012217304764,0.000872664625997,0.0,0.0,0.0,0.0,0.0,0.0,0.0,0.0,0.0,0.129492,0.161865,-9.517662,0.0,0.0,0.0,0.0,0.0,0.0,0.0,0.0,0.0
1636841692121275336,146364,1636841692120275140,,0.0,0.0,0.0,0.0,-1.0,0.0,0.0,0.0,0.0,0.0,0.0,0.0,0.0,-0.011344640138,0.00436332312999,-0.00349065850399,0.0,0.0,0.0,0.0,0.0,0.0,0.0,0.0,0.0,0.097119,0.226611,-9.550035,0.0,0.0,0.0,0.0,0.0,0.0,0.0,0.0,0.0
1636841692136076307,146365,1636841692135462497,,0.0,0.0,0.0,0.0,-1.0,0.0,0.0,0.0,0.0,0.0,0.0,0.0,0.0,0.00436332312999,0.00261799387799,0.00349065850399,0.0,0.0,0.0,0.0,0.0,0.0,0.0,0.0,0.0,0.129492,0.129492,-9.679527,0.0,0.0,0.0,0.0,0.0,0.0,0.0,0.0,0.0
1636841692155616712,146366,1636841692155355045,,0.0,0.0,0.0,0.0,-1.0,0.0,0.0,0.0,0.0,0.0,0.0,0.0,0.0,-0.00523598775598,0.0,-0.00349065850399,0.0,0.0,0.0,0.0,0.0,0.0,0.0,0.0,0.0,0.0,0.161865,-9.517662,0.0,0.0,0.0,0.0,0.0,0.0,0.0,0.0,0.0
1636841692175343862,146367,1636841692175239233,,0.0,0.0,0.0,0.0,-1.0,0.0,0.0,0.0,0.0,0.0,0.0,0.0,0.0,-0.00785398163397,0.010471975512,-0.00610865238198,0.0,0.0,0.0,0.0,0.0,0.0,0.0,0.0,0.0,0.097119,0.226611,-9.614781,0.0,0.0,0.0,0.0,0.0,0.0,0.0,0.0,0.0
1636841692195270869,146368,1636841692195131810,,0.0,0.0,0.0,0.0,-1.0,0.0,0.0,0.0,0.0,0.0,0.0,0.0,0.0,0.00436332312999,0.00959931088597,-0.0165806278939,0.0,0.0,0.0,0.0,0.0,0.0,0.0,0.0,0.0,0.161865,0.258984,-9.550035,0.0,0.0,0.0,0.0,0.0,0.0,0.0,0.0,0.0
1636841692215368222,146369,1636841692215183276,,0.0,0.0,0.0,0.0,-1.0,0.0,0.0,0.0,0.0,0.0,0.0,0.0,0.0,0.00436332312999,-0.00523598775598,-0.011344640138,0.0,0.0,0.0,0.0,0.0,0.0,0.0,0.0,0.0,0.064746,0.194238,-9.582408,0.0,0.0,0.0,0.0,0.0,0.0,0.0,0.0,0.0
1636841692235256262,146370,1636841692235140156,,0.0,0.0,0.0,0.0,-1.0,0.0,0.0,0.0,0.0,0.0,0.0,0.0,0.0,-0.00698131700798,0.00349065850399,-0.00698131700798,0.0,0.0,0.0,0.0,0.0,0.0,0.0,0.0,0.0,-0.032373,0.226611,-9.744273,0.0,0.0,0.0,0.0,0.0,0.0,0.0,0.0,0.0
1636841692255290237,146371,1636841692255175340,,0.0,0.0,0.0,0.0,-1.0,0.0,0.0,0.0,0.0,0.0,0.0,0.0,0.0,0.000872664625997,0.000872664625997,0.00523598775598,0.0,0.0,0.0,0.0,0.0,0.0,0.0,0.0,0.0,0.064746,0.161865,-9.582408,0.0,0.0,0.0,0.0,0.0,0.0,0.0,0.0,0.0
1636841692275227992,146372,1636841692275092713,,0.0,0.0,0.0,0.0,-1.0,0.0,0.0,0.0,0.0,0.0,0.0,0.0,0.0,-0.00698131700798,0.00785398163397,-0.00785398163397,0.0,0.0,0.0,0.0,0.0,0.0,0.0,0.0,0.0,0.097119,0.258984,-9.647154,0.0,0.0,0.0,0.0,0.0,0.0,0.0,0.0,0.0
1636841692295539931,146373,1636841692295269424,,0.0,0.0,0.0,0.0,-1.0,0.0,0.0,0.0,0.0,0.0,0.0,0.0,0.0,0.00436332312999,0.00610865238198,-0.00959931088597,0.0,0.0,0.0,0.0,0.0,0.0,0.0,0.0,0.0,0.161865,0.226611,-9.679527,0.0,0.0,0.0,0.0,0.0,0.0,0.0,0.0,0.0
1636841692315527232,146374,1636841692315240832,,0.0,0.0,0.0,0.0,-1.0,0.0,0.0,0.0,0.0,0.0,0.0,0.0,0.0,0.00349065850399,0.00610865238198,-0.00523598775598,0.0,0.0,0.0,0.0,0.0,0.0,0.0,0.0,0.0,0.097119,0.194238,-9.614781,0.0,0.0,0.0,0.0,0.0,0.0,0.0,0.0,0.0
1636841692336165165,146375,1636841692335387106,,0.0,0.0,0.0,0.0,-1.0,0.0,0.0,0.0,0.0,0.0,0.0,0.0,0.0,-0.00174532925199,0.0,0.0,0.0,0.0,0.0,0.0,0.0,0.0,0.0,0.0,0.0,0.064746,0.194238,-9.582408,0.0,0.0,0.0,0.0,0.0,0.0,0.0,0.0,0.0
1636841692355463215,146376,1636841692355305290,,0.0,0.0,0.0,0.0,-1.0,0.0,0.0,0.0,0.0,0.0,0.0,0.0,0.0,0.00610865238198,0.00959931088597,-0.00610865238198,0.0,0.0,0.0,0.0,0.0,0.0,0.0,0.0,0.0,0.291357,0.194238,-9.647154,0.0,0.0,0.0,0.0,0.0,0.0,0.0,0.0,0.0
1636841692375681186,146377,1636841692375374726,,0.0,0.0,0.0,0.0,-1.0,0.0,0.0,0.0,0.0,0.0,0.0,0.0,0.0,0.00349065850399,0.00261799387799,-0.0174532925199,0.0,0.0,0.0,0.0,0.0,0.0,0.0,0.0,0.0,0.032373,0.226611,-9.679527,0.0,0.0,0.0,0.0,0.0,0.0,0.0,0.0,0.0
1636841692395761393,146378,1636841692395479084,,0.0,0.0,0.0,0.0,-1.0,0.0,0.0,0.0,0.0,0.0,0.0,0.0,0.0,-0.000872664625997,0.00349065850399,-0.011344640138,0.0,0.0,0.0,0.0,0.0,0.0,0.0,0.0,0.0,0.097119,0.226611,-9.647154,0.0,0.0,0.0,0.0,0.0,0.0,0.0,0.0,0.0
1636841692415780941,146379,1636841692415369641,,0.0,0.0,0.0,0.0,-1.0,0.0,0.0,0.0,0.0,0.0,0.0,0.0,0.0,0.00349065850399,0.00174532925199,-0.00174532925199,0.0,0.0,0.0,0.0,0.0,0.0,0.0,0.0,0.0,0.032373,0.194238,-9.614781,0.0,0.0,0.0,0.0,0.0,0.0,0.0,0.0,0.0
1636841692435984812,146380,1636841692435472534,,0.0,0.0,0.0,0.0,-1.0,0.0,0.0,0.0,0.0,0.0,0.0,0.0,0.0,0.012217304764,0.0,-0.014835298642,0.0,0.0,0.0,0.0,0.0,0.0,0.0,0.0,0.0,0.064746,0.194238,-9.647154,0.0,0.0,0.0,0.0,0.0,0.0,0.0,0.0,0.0
1636841692456093709,146381,1636841692455491929,,0.0,0.0,0.0,0.0,-1.0,0.0,0.0,0.0,0.0,0.0,0.0,0.0,0.0,-0.00785398163397,0.00959931088597,-0.00174532925199,0.0,0.0,0.0,0.0,0.0,0.0,0.0,0.0,0.0,0.097119,0.226611,-9.550035,0.0,0.0,0.0,0.0,0.0,0.0,0.0,0.0,0.0
1636841692476193380,146382,1636841692475759850,,0.0,0.0,0.0,0.0,-1.0,0.0,0.0,0.0,0.0,0.0,0.0,0.0,0.0,-0.00523598775598,0.014835298642,-0.00959931088597,0.0,0.0,0.0,0.0,0.0,0.0,0.0,0.0,0.0,0.129492,0.161865,-9.744273,0.0,0.0,0.0,0.0,0.0,0.0,0.0,0.0,0.0
1636841692495947677,146383,1636841692495339167,,0.0,0.0,0.0,0.0,-1.0,0.0,0.0,0.0,0.0,0.0,0.0,0.0,0.0,0.0,0.00610865238198,-0.012217304764,0.0,0.0,0.0,0.0,0.0,0.0,0.0,0.0,0.0,0.064746,0.258984,-9.7119,0.0,0.0,0.0,0.0,0.0,0.0,0.0,0.0,0.0
1636841692515803916,146384,1636841692515440967,,0.0,0.0,0.0,0.0,-1.0,0.0,0.0,0.0,0.0,0.0,0.0,0.0,0.0,0.0,0.00349065850399,-0.010471975512,0.0,0.0,0.0,0.0,0.0,0.0,0.0,0.0,0.0,0.032373,0.129492,-9.647154,0.0,0.0,0.0,0.0,0.0,0.0,0.0,0.0,0.0
1636841692535863675,146385,1636841692535587171,,0.0,0.0,0.0,0.0,-1.0,0.0,0.0,0.0,0.0,0.0,0.0,0.0,0.0,0.000872664625997,0.00523598775598,-0.00785398163397,0.0,0.0,0.0,0.0,0.0,0.0,0.0,0.0,0.0,0.161865,0.194238,-9.614781,0.0,0.0,0.0,0.0,0.0,0.0,0.0,0.0,0.0
1636841692556032315,146386,1636841692555821813,,0.0,0.0,0.0,0.0,-1.0,0.0,0.0,0.0,0.0,0.0,0.0,0.0,0.0,0.00610865238198,0.0,-0.00610865238198,0.0,0.0,0.0,0.0,0.0,0.0,0.0,0.0,0.0,0.0,0.194238,-9.647154,0.0,0.0,0.0,0.0,0.0,0.0,0.0,0.0,0.0
1636841692576340561,146387,1636841692575669925,,0.0,0.0,0.0,0.0,-1.0,0.0,0.0,0.0,0.0,0.0,0.0,0.0,0.0,0.00261799387799,0.00174532925199,-0.00436332312999,0.0,0.0,0.0,0.0,0.0,0.0,0.0,0.0,0.0,0.097119,0.194238,-9.517662,0.0,0.0,0.0,0.0,0.0,0.0,0.0,0.0,0.0
1636841692595867105,146388,1636841692595319767,,0.0,0.0,0.0,0.0,-1.0,0.0,0.0,0.0,0.0,0.0,0.0,0.0,0.0,-0.00872664625997,0.012217304764,-0.01308996939,0.0,0.0,0.0,0.0,0.0,0.0,0.0,0.0,0.0,0.064746,0.388476,-9.647154,0.0,0.0,0.0,0.0,0.0,0.0,0.0,0.0,0.0
1636841692615851039,146389,1636841692615421459,,0.0,0.0,0.0,0.0,-1.0,0.0,0.0,0.0,0.0,0.0,0.0,0.0,0.0,-0.00349065850399,-0.00523598775598,-0.00523598775598,0.0,0.0,0.0,0.0,0.0,0.0,0.0,0.0,0.0,-0.032373,0.161865,-9.582408,0.0,0.0,0.0,0.0,0.0,0.0,0.0,0.0,0.0
1636841692635975998,146390,1636841692635518366,,0.0,0.0,0.0,0.0,-1.0,0.0,0.0,0.0,0.0,0.0,0.0,0.0,0.0,0.00174532925199,0.00174532925199,-0.011344640138,0.0,0.0,0.0,0.0,0.0,0.0,0.0,0.0,0.0,0.064746,0.194238,-9.582408,0.0,0.0,0.0,0.0,0.0,0.0,0.0,0.0,0.0
1636841692656184116,146391,1636841692655882583,,0.0,0.0,0.0,0.0,-1.0,0.0,0.0,0.0,0.0,0.0,0.0,0.0,0.0,0.010471975512,0.00261799387799,0.0,0.0,0.0,0.0,0.0,0.0,0.0,0.0,0.0,0.0,0.032373,0.226611,-9.582408,0.0,0.0,0.0,0.0,0.0,0.0,0.0,0.0,0.0
1636841692676033165,146392,1636841692675432219,,0.0,0.0,0.0,0.0,-1.0,0.0,0.0,0.0,0.0,0.0,0.0,0.0,0.0,0.00174532925199,0.00872664625997,0.0,0.0,0.0,0.0,0.0,0.0,0.0,0.0,0.0,0.0,0.064746,0.258984,-9.7119,0.0,0.0,0.0,0.0,0.0,0.0,0.0,0.0,0.0
1636841692695486064,146393,1636841692695197564,,0.0,0.0,0.0,0.0,-1.0,0.0,0.0,0.0,0.0,0.0,0.0,0.0,0.0,0.00261799387799,0.010471975512,-0.00174532925199,0.0,0.0,0.0,0.0,0.0,0.0,0.0,0.0,0.0,0.129492,0.226611,-9.582408,0.0,0.0,0.0,0.0,0.0,0.0,0.0,0.0,0.0
1636841692715537664,146394,1636841692715311720,,0.0,0.0,0.0,0.0,-1.0,0.0,0.0,0.0,0.0,0.0,0.0,0.0,0.0,0.00523598775598,0.0165806278939,-0.012217304764,0.0,0.0,0.0,0.0,0.0,0.0,0.0,0.0,0.0,0.129492,0.226611,-9.614781,0.0,0.0,0.0,0.0,0.0,0.0,0.0,0.0,0.0
1636841692735431735,146395,1636841692735180732,,0.0,0.0,0.0,0.0,-1.0,0.0,0.0,0.0,0.0,0.0,0.0,0.0,0.0,0.00261799387799,0.000872664625997,-0.01308996939,0.0,0.0,0.0,0.0,0.0,0.0,0.0,0.0,0.0,0.129492,0.291357,-9.582408,0.0,0.0,0.0,0.0,0.0,0.0,0.0,0.0,0.0
1636841692755491223,146396,1636841692755220631,,0.0,0.0,0.0,0.0,-1.0,0.0,0.0,0.0,0.0,0.0,0.0,0.0,0.0,0.00523598775598,0.00436332312999,-0.01308996939,0.0,0.0,0.0,0.0,0.0,0.0,0.0,0.0,0.0,0.097119,0.226611,-9.550035,0.0,0.0,0.0,0.0,0.0,0.0,0.0,0.0,0.0
1636841692775523112,146397,1636841692775264406,,0.0,0.0,0.0,0.0,-1.0,0.0,0.0,0.0,0.0,0.0,0.0,0.0,0.0,-0.00349065850399,0.00436332312999,-0.00349065850399,0.0,0.0,0.0,0.0,0.0,0.0,0.0,0.0,0.0,-0.064746,0.226611,-9.550035,0.0,0.0,0.0,0.0,0.0,0.0,0.0,0.0,0.0
1636841692795561593,146398,1636841692795364110,,0.0,0.0,0.0,0.0,-1.0,0.0,0.0,0.0,0.0,0.0,0.0,0.0,0.0,-0.00523598775598,0.00872664625997,0.0,0.0,0.0,0.0,0.0,0.0,0.0,0.0,0.0,0.0,0.097119,0.161865,-9.614781,0.0,0.0,0.0,0.0,0.0,0.0,0.0,0.0,0.0
1636841692815601579,146399,1636841692815392947,,0.0,0.0,0.0,0.0,-1.0,0.0,0.0,0.0,0.0,0.0,0.0,0.0,0.0,-0.00349065850399,0.00349065850399,0.00349065850399,0.0,0.0,0.0,0.0,0.0,0.0,0.0,0.0,0.0,0.129492,0.194238,-9.647154,0.0,0.0,0.0,0.0,0.0,0.0,0.0,0.0,0.0
1636841692835886547,146400,1636841692835533210,,0.0,0.0,0.0,0.0,-1.0,0.0,0.0,0.0,0.0,0.0,0.0,0.0,0.0,-0.00523598775598,0.00261799387799,-0.00523598775598,0.0,0.0,0.0,0.0,0.0,0.0,0.0,0.0,0.0,0.129492,0.226611,-9.517662,0.0,0.0,0.0,0.0,0.0,0.0,0.0,0.0,0.0
1636841692856448302,146401,1636841692855551719,,0.0,0.0,0.0,0.0,-1.0,0.0,0.0,0.0,0.0,0.0,0.0,0.0,0.0,-0.00436332312999,0.00436332312999,0.00174532925199,0.0,0.0,0.0,0.0,0.0,0.0,0.0,0.0,0.0,0.097119,0.226611,-9.582408,0.0,0.0,0.0,0.0,0.0,0.0,0.0,0.0,0.0
1636841692876292262,146402,1636841692875491745,,0.0,0.0,0.0,0.0,-1.0,0.0,0.0,0.0,0.0,0.0,0.0,0.0,0.0,-0.000872664625997,-0.00349065850399,-0.0157079632679,0.0,0.0,0.0,0.0,0.0,0.0,0.0,0.0,0.0,0.129492,0.226611,-9.550035,0.0,0.0,0.0,0.0,0.0,0.0,0.0,0.0,0.0
1636841692897081463,146403,1636841692895676441,,0.0,0.0,0.0,0.0,-1.0,0.0,0.0,0.0,0.0,0.0,0.0,0.0,0.0,0.0,-0.00872664625997,-0.00436332312999,0.0,0.0,0.0,0.0,0.0,0.0,0.0,0.0,0.0,-0.064746,0.226611,-9.614781,0.0,0.0,0.0,0.0,0.0,0.0,0.0,0.0,0.0
1636841692916123109,146404,1636841692915561352,,0.0,0.0,0.0,0.0,-1.0,0.0,0.0,0.0,0.0,0.0,0.0,0.0,0.0,-0.012217304764,0.00959931088597,0.000872664625997,0.0,0.0,0.0,0.0,0.0,0.0,0.0,0.0,0.0,0.097119,0.226611,-9.776646,0.0,0.0,0.0,0.0,0.0,0.0,0.0,0.0,0.0
1636841692935543600,146405,1636841692935301317,,0.0,0.0,0.0,0.0,-1.0,0.0,0.0,0.0,0.0,0.0,0.0,0.0,0.0,0.0,0.010471975512,-0.00785398163397,0.0,0.0,0.0,0.0,0.0,0.0,0.0,0.0,0.0,0.097119,0.226611,-9.614781,0.0,0.0,0.0,0.0,0.0,0.0,0.0,0.0,0.0
1636841692955837294,146406,1636841692955462373,,0.0,0.0,0.0,0.0,-1.0,0.0,0.0,0.0,0.0,0.0,0.0,0.0,0.0,0.00349065850399,0.00610865238198,-0.00610865238198,0.0,0.0,0.0,0.0,0.0,0.0,0.0,0.0,0.0,0.097119,0.32373,-9.582408,0.0,0.0,0.0,0.0,0.0,0.0,0.0,0.0,0.0
1636841692975410978,146407,1636841692975182868,,0.0,0.0,0.0,0.0,-1.0,0.0,0.0,0.0,0.0,0.0,0.0,0.0,0.0,-0.00174532925199,-0.000872664625997,-0.012217304764,0.0,0.0,0.0,0.0,0.0,0.0,0.0,0.0,0.0,0.129492,0.161865,-9.614781,0.0,0.0,0.0,0.0,0.0,0.0,0.0,0.0,0.0
1636841692995457870,146408,1636841692995231428,,0.0,0.0,0.0,0.0,-1.0,0.0,0.0,0.0,0.0,0.0,0.0,0.0,0.0,-0.00523598775598,0.00959931088597,-0.000872664625997,0.0,0.0,0.0,0.0,0.0,0.0,0.0,0.0,0.0,0.129492,0.194238,-9.582408,0.0,0.0,0.0,0.0,0.0,0.0,0.0,0.0,0.0
1636841693015385852,146409,1636841693015192698,,0.0,0.0,0.0,0.0,-1.0,0.0,0.0,0.0,0.0,0.0,0.0,0.0,0.0,0.000872664625997,0.00349065850399,-0.00436332312999,0.0,0.0,0.0,0.0,0.0,0.0,0.0,0.0,0.0,0.064746,-0.129492,-9.614781,0.0,0.0,0.0,0.0,0.0,0.0,0.0,0.0,0.0
1636841693035661105,146410,1636841693035208161,,0.0,0.0,0.0,0.0,-1.0,0.0,0.0,0.0,0.0,0.0,0.0,0.0,0.0,0.00174532925199,0.000872664625997,-0.000872664625997,0.0,0.0,0.0,0.0,0.0,0.0,0.0,0.0,0.0,0.097119,0.226611,-9.582408,0.0,0.0,0.0,0.0,0.0,0.0,0.0,0.0,0.0
1636841693055416197,146411,1636841693055268586,,0.0,0.0,0.0,0.0,-1.0,0.0,0.0,0.0,0.0,0.0,0.0,0.0,0.0,-0.00261799387799,0.00349065850399,-0.00698131700798,0.0,0.0,0.0,0.0,0.0,0.0,0.0,0.0,0.0,0.129492,0.161865,-9.7119,0.0,0.0,0.0,0.0,0.0,0.0,0.0,0.0,0.0
1636841693075457762,146412,1636841693075224373,,0.0,0.0,0.0,0.0,-1.0,0.0,0.0,0.0,0.0,0.0,0.0,0.0,0.0,0.00698131700798,0.00698131700798,0.00174532925199,0.0,0.0,0.0,0.0,0.0,0.0,0.0,0.0,0.0,0.064746,0.161865,-9.582408,0.0,0.0,0.0,0.0,0.0,0.0,0.0,0.0,0.0
1636841693095515924,146413,1636841693095323172,,0.0,0.0,0.0,0.0,-1.0,0.0,0.0,0.0,0.0,0.0,0.0,0.0,0.0,0.00523598775598,0.012217304764,-0.01308996939,0.0,0.0,0.0,0.0,0.0,0.0,0.0,0.0,0.0,0.161865,0.226611,-9.582408,0.0,0.0,0.0,0.0,0.0,0.0,0.0,0.0,0.0
1636841693115719077,146414,1636841693115328174,,0.0,0.0,0.0,0.0,-1.0,0.0,0.0,0.0,0.0,0.0,0.0,0.0,0.0,-0.00785398163397,0.0,-0.012217304764,0.0,0.0,0.0,0.0,0.0,0.0,0.0,0.0,0.0,0.129492,0.0,-9.582408,0.0,0.0,0.0,0.0,0.0,0.0,0.0,0.0,0.0
1636841693136150535,146415,1636841693135574027,,0.0,0.0,0.0,0.0,-1.0,0.0,0.0,0.0,0.0,0.0,0.0,0.0,0.0,-0.00436332312999,0.0,-0.00436332312999,0.0,0.0,0.0,0.0,0.0,0.0,0.0,0.0,0.0,0.064746,0.194238,-9.614781,0.0,0.0,0.0,0.0,0.0,0.0,0.0,0.0,0.0
1636841693158756766,146416,1636841693156468932,,0.0,0.0,0.0,0.0,-1.0,0.0,0.0,0.0,0.0,0.0,0.0,0.0,0.0,0.00174532925199,0.00523598775598,-0.00349065850399,0.0,0.0,0.0,0.0,0.0,0.0,0.0,0.0,0.0,0.032373,0.258984,-9.647154,0.0,0.0,0.0,0.0,0.0,0.0,0.0,0.0,0.0
1636841693179890180,146417,1636841693176849918,,0.0,0.0,0.0,0.0,-1.0,0.0,0.0,0.0,0.0,0.0,0.0,0.0,0.0,0.00872664625997,0.00349065850399,-0.00174532925199,0.0,0.0,0.0,0.0,0.0,0.0,0.0,0.0,0.0,0.129492,0.194238,-9.679527,0.0,0.0,0.0,0.0,0.0,0.0,0.0,0.0,0.0
1636841693198778560,146418,1636841693197336555,,0.0,0.0,0.0,0.0,-1.0,0.0,0.0,0.0,0.0,0.0,0.0,0.0,0.0,-0.00872664625997,0.00349065850399,-0.00959931088597,0.0,0.0,0.0,0.0,0.0,0.0,0.0,0.0,0.0,0.097119,0.161865,-9.614781,0.0,0.0,0.0,0.0,0.0,0.0,0.0,0.0,0.0
1636841693220399634,146419,1636841693216227452,,0.0,0.0,0.0,0.0,-1.0,0.0,0.0,0.0,0.0,0.0,0.0,0.0,0.0,-0.00523598775598,0.00610865238198,-0.011344640138,0.0,0.0,0.0,0.0,0.0,0.0,0.0,0.0,0.0,0.064746,0.0,-9.614781,0.0,0.0,0.0,0.0,0.0,0.0,0.0,0.0,0.0
1636841693239231859,146420,1636841693237340076,,0.0,0.0,0.0,0.0,-1.0,0.0,0.0,0.0,0.0,0.0,0.0,0.0,0.0,-0.00349065850399,0.00523598775598,-0.00610865238198,0.0,0.0,0.0,0.0,0.0,0.0,0.0,0.0,0.0,0.161865,0.258984,-9.647154,0.0,0.0,0.0,0.0,0.0,0.0,0.0,0.0,0.0
1636841693256036467,146421,1636841693255517962,,0.0,0.0,0.0,0.0,-1.0,0.0,0.0,0.0,0.0,0.0,0.0,0.0,0.0,0.00174532925199,0.0,0.0,0.0,0.0,0.0,0.0,0.0,0.0,0.0,0.0,0.0,0.064746,0.226611,-9.582408,0.0,0.0,0.0,0.0,0.0,0.0,0.0,0.0,0.0
1636841693275679884,146422,1636841693275394861,,0.0,0.0,0.0,0.0,-1.0,0.0,0.0,0.0,0.0,0.0,0.0,0.0,0.0,-0.00698131700798,0.00261799387799,-0.010471975512,0.0,0.0,0.0,0.0,0.0,0.0,0.0,0.0,0.0,0.097119,0.226611,-9.614781,0.0,0.0,0.0,0.0,0.0,0.0,0.0,0.0,0.0
1636841693295570778,146423,1636841693295442525,,0.0,0.0,0.0,0.0,-1.0,0.0,0.0,0.0,0.0,0.0,0.0,0.0,0.0,0.00261799387799,0.011344640138,-0.00872664625997,0.0,0.0,0.0,0.0,0.0,0.0,0.0,0.0,0.0,0.097119,0.161865,-9.776646,0.0,0.0,0.0,0.0,0.0,0.0,0.0,0.0,0.0
1636841693315305107,146424,1636841693315178183,,0.0,0.0,0.0,0.0,-1.0,0.0,0.0,0.0,0.0,0.0,0.0,0.0,0.0,0.0,0.00610865238198,-0.00698131700798,0.0,0.0,0.0,0.0,0.0,0.0,0.0,0.0,0.0,0.064746,0.226611,-9.582408,0.0,0.0,0.0,0.0,0.0,0.0,0.0,0.0,0.0
1636841693335656862,146425,1636841693335157971,,0.0,0.0,0.0,0.0,-1.0,0.0,0.0,0.0,0.0,0.0,0.0,0.0,0.0,0.00523598775598,0.00872664625997,-0.00872664625997,0.0,0.0,0.0,0.0,0.0,0.0,0.0,0.0,0.0,0.129492,0.194238,-9.744273,0.0,0.0,0.0,0.0,0.0,0.0,0.0,0.0,0.0
1636841693355406917,146426,1636841693355169903,,0.0,0.0,0.0,0.0,-1.0,0.0,0.0,0.0,0.0,0.0,0.0,0.0,0.0,-0.00261799387799,0.00174532925199,-0.00872664625997,0.0,0.0,0.0,0.0,0.0,0.0,0.0,0.0,0.0,0.097119,0.194238,-9.485289,0.0,0.0,0.0,0.0,0.0,0.0,0.0,0.0,0.0
1636841693375513966,146427,1636841693375208643,,0.0,0.0,0.0,0.0,-1.0,0.0,0.0,0.0,0.0,0.0,0.0,0.0,0.0,-0.00261799387799,0.00959931088597,-0.00436332312999,0.0,0.0,0.0,0.0,0.0,0.0,0.0,0.0,0.0,0.064746,0.161865,-9.582408,0.0,0.0,0.0,0.0,0.0,0.0,0.0,0.0,0.0
1636841693395375465,146428,1636841693395203111,,0.0,0.0,0.0,0.0,-1.0,0.0,0.0,0.0,0.0,0.0,0.0,0.0,0.0,0.0,0.000872664625997,-0.00261799387799,0.0,0.0,0.0,0.0,0.0,0.0,0.0,0.0,0.0,0.129492,0.161865,-9.582408,0.0,0.0,0.0,0.0,0.0,0.0,0.0,0.0,0.0
1636841693415405857,146429,1636841693415215056,,0.0,0.0,0.0,0.0,-1.0,0.0,0.0,0.0,0.0,0.0,0.0,0.0,0.0,0.00261799387799,0.00436332312999,-0.00349065850399,0.0,0.0,0.0,0.0,0.0,0.0,0.0,0.0,0.0,0.064746,0.226611,-9.582408,0.0,0.0,0.0,0.0,0.0,0.0,0.0,0.0,0.0
